trials.thisRepN,trials.thisTrialN,trials.thisN,trials.thisIndex,num_distr,fixation.started,target.started,mouse.started,mouse.x,mouse.y,mouse.leftButton,mouse.midButton,mouse.rightButton,mouse.time,mouse.corr,mouse.clicked_name,participant,session,date,expName,psychopyVersion,frameRate,
0,0,0,0,10,11.763410700019449,11.763410700019449,0.026477200037334114,[0.1574074074074074],[0.41944444444444445],[1],[0],[0],[2.4827070999890566],[0],['target'],Stuti,001,2023-09-15_12h02.53.556,visualsearch,2023.1.3,59.978791512390494,
1,0,1,0,10,14.27611400000751,14.27611400000751,0.025558699970133603,[0.48518518518518516],[-0.025925925925925925],[1],[0],[0],[2.011898300028406],[0],['target'],Stuti,001,2023-09-15_12h02.53.556,visualsearch,2023.1.3,59.978791512390494,
2,0,2,0,10,16.317887599987444,16.317887599987444,0.025915599951986223,[0.09351851851851851],[0.21944444444444444],[1],[0],[0],[1.3704118999885395],[0],['target'],Stuti,001,2023-09-15_12h02.53.556,visualsearch,2023.1.3,59.978791512390494,
3,0,3,0,5,17.700960999995004,17.700960999995004,0.013023399980738759,[0.2777777777777778],[0.3574074074074074],[1],[0],[0],[2.718256200023461],[0],['target'],Stuti,001,2023-09-15_12h02.53.556,visualsearch,2023.1.3,59.978791512390494,
4,0,4,0,5,20.435821900027804,20.435821900027804,0.01289150002412498,[-0.1638888888888889],[-0.19444444444444445],[1],[0],[0],[1.8671417000005022],[0],['target'],Stuti,001,2023-09-15_12h02.53.556,visualsearch,2023.1.3,59.978791512390494,
5,0,5,0,10,22.337947199994233,22.337947199994233,0.026709600002504885,[-0.2953703703703704],[0.45925925925925926],[1],[0],[0],[3.554272999987006],[0],['target'],Stuti,001,2023-09-15_12h02.53.556,visualsearch,2023.1.3,59.978791512390494,
6,0,6,0,5,25.9085832000128,25.9085832000128,0.015466800017748028,[0.2037037037037037],[-0.04259259259259259],[1],[0],[0],[1.5623613999923691],[0],['target'],Stuti,001,2023-09-15_12h02.53.556,visualsearch,2023.1.3,59.978791512390494,
7,0,7,0,5,27.487160600023344,27.487160600023344,0.013253099983558059,[-0.4564814814814815],[0.18055555555555555],[1],[0],[0],[1.5171667000395246],[0],['target'],Stuti,001,2023-09-15_12h02.53.556,visualsearch,2023.1.3,59.978791512390494,
8,0,8,0,10,29.041471000004094,29.041471000004094,0.027828499965835363,[0.33425925925925926],[-0.0712962962962963],[1],[0],[0],[1.8521036999882199],[0],['target'],Stuti,001,2023-09-15_12h02.53.556,visualsearch,2023.1.3,59.978791512390494,
9,0,9,0,5,30.906182100006845,30.906182100006845,0.013729199999943376,[0.23796296296296296],[0.13240740740740742],[1],[0],[0],[1.1161483000032604],[0],['target'],Stuti,001,2023-09-15_12h02.53.556,visualsearch,2023.1.3,59.978791512390494,
10,0,10,0,5,32.04663320002146,32.04663320002146,0.020224699983373284,[-0.13148148148148148],[0.4981481481481482],[1],[0],[0],[2.7944319999660365],[0],['target'],Stuti,001,2023-09-15_12h02.53.556,visualsearch,2023.1.3,59.978791512390494,
11,0,11,0,10,34.872103600006085,34.872103600006085,0.02320899994811043,[0.4824074074074074],[0.125],[1],[0],[0],[3.3552515000337735],[0],['target'],Stuti,001,2023-09-15_12h02.53.556,visualsearch,2023.1.3,59.978791512390494,
12,0,12,0,5,38.240256100019906,38.240256100019906,0.013509000011254102,[-0.45925925925925926],[-0.07685185185185185],[1],[0],[0],[2.2850146999699064],[0],['target'],Stuti,001,2023-09-15_12h02.53.556,visualsearch,2023.1.3,59.978791512390494,
13,0,13,0,5,40.54916960000992,40.54916960000992,0.01715420000255108,[-0.22037037037037038],[-0.22592592592592592],[1],[0],[0],[0.9929019000264816],[0],['target'],Stuti,001,2023-09-15_12h02.53.556,visualsearch,2023.1.3,59.978791512390494,
14,0,14,0,5,41.569381600013,41.569381600013,0.01313300000037998,[0.16574074074074074],[-0.29907407407407405],[1],[0],[0],[1.7168781999498606],[0],['target'],Stuti,001,2023-09-15_12h02.53.556,visualsearch,2023.1.3,59.978791512390494,
15,0,15,0,10,43.31377370003611,43.31377370003611,0.028183700051158667,[0.2833333333333333],[0.45],[1],[0],[0],[2.8018627000274137],[0],['target'],Stuti,001,2023-09-15_12h02.53.556,visualsearch,2023.1.3,59.978791512390494,
16,0,16,0,10,46.14099560002796,46.14099560002796,0.02315909997560084,[0.32222222222222224],[0.0787037037037037],[1],[0],[0],[1.5237173000350595],[0],['target'],Stuti,001,2023-09-15_12h02.53.556,visualsearch,2023.1.3,59.978791512390494,
17,0,17,0,5,47.67727779998677,47.67727779998677,0.012720900005660951,[-0.46111111111111114],[-0.14166666666666666],[1],[0],[0],[1.567926499992609],[0],['target'],Stuti,001,2023-09-15_12h02.53.556,visualsearch,2023.1.3,59.978791512390494,
18,0,18,0,10,49.27422760002082,49.27422760002082,0.023406799999065697,[-0.41759259259259257],[0.39166666666666666],[1],[0],[0],[3.406631199992262],[0],['target'],Stuti,001,2023-09-15_12h02.53.556,visualsearch,2023.1.3,59.978791512390494,
19,0,19,0,5,52.69348140002694,52.69348140002694,0.01260120002552867,[0.26296296296296295],[0.03425925925925926],[1],[0],[0],[1.3678415000322275],[0],['target'],Stuti,001,2023-09-15_12h02.53.556,visualsearch,2023.1.3,59.978791512390494,
20,0,20,0,5,54.079253100033384,54.079253100033384,0.013608000008389354,[-0.22314814814814815],[-0.4212962962962963],[1],[0],[0],[1.7332064000074752],[0],['target'],Stuti,001,2023-09-15_12h02.53.556,visualsearch,2023.1.3,59.978791512390494,
21,0,21,0,10,55.8451298000291,55.8451298000291,0.025091499963309616,[0.4361111111111111],[0.030555555555555555],[1],[0],[0],[3.522103200026322],[0],['target'],Stuti,001,2023-09-15_12h02.53.556,visualsearch,2023.1.3,59.978791512390494,
22,0,22,0,10,59.395196500001475,59.395196500001475,0.025252799969166517,[0.22962962962962963],[-0.18333333333333332],[1],[0],[0],[1.871987899998203],[0],['target'],Stuti,001,2023-09-15_12h02.53.556,visualsearch,2023.1.3,59.978791512390494,
23,0,23,0,5,61.28064499999164,61.28064499999164,0.013276899990160018,[-0.20277777777777778],[0.20092592592592592],[1],[0],[0],[2.083728700003121],[0],['target'],Stuti,001,2023-09-15_12h02.53.556,visualsearch,2023.1.3,59.978791512390494,
24,0,24,0,10,63.396984299994074,63.396984299994074,0.024272400012705475,[0.028703703703703703],[-0.03981481481481482],[1],[0],[0],[3.8227119999937713],[0],['target'],Stuti,001,2023-09-15_12h02.53.556,visualsearch,2023.1.3,59.978791512390494,
25,0,25,0,10,67.24750410002889,67.24750410002889,0.023373500036541373,[-0.2851851851851852],[0.08333333333333333],[1],[0],[0],[1.573155099991709],[0],['target'],Stuti,001,2023-09-15_12h02.53.556,visualsearch,2023.1.3,59.978791512390494,
26,0,26,0,5,68.8336804000428,68.8336804000428,0.01358480000635609,[0.27685185185185185],[0.22870370370370371],[1],[0],[0],[1.132954599976074],[0],['target'],Stuti,001,2023-09-15_12h02.53.556,visualsearch,2023.1.3,59.978791512390494,
27,0,27,0,10,69.99906699999701,69.99906699999701,0.024182400025893003,[-0.06666666666666667],[0.08055555555555556],[1],[0],[0],[1.772452200006228],[0],['target'],Stuti,001,2023-09-15_12h02.53.556,visualsearch,2023.1.3,59.978791512390494,
28,0,28,0,10,71.79851510003209,71.79851510003209,0.02458739996654913,[0.08888888888888889],[0.14814814814814814],[1],[0],[0],[0.9725565999979153],[0],['target'],Stuti,001,2023-09-15_12h02.53.556,visualsearch,2023.1.3,59.978791512390494,
29,0,29,0,10,72.79804940003669,72.79804940003669,0.02426600002218038,[0.4324074074074074],[0.06388888888888888],[1],[0],[0],[2.2902300000423566],[0],['target'],Stuti,001,2023-09-15_12h02.53.556,visualsearch,2023.1.3,59.978791512390494,
30,0,30,0,5,75.10838869999861,75.10838869999861,0.01723519997904077,[0.47685185185185186],[0.2722222222222222],[1],[0],[0],[1.7620203000260517],[0],['target'],Stuti,001,2023-09-15_12h02.53.556,visualsearch,2023.1.3,59.978791512390494,
31,0,31,0,10,76.8974126999965,76.8974126999965,0.021878200001083314,[0.1037037037037037],[-0.33055555555555555],[1],[0],[0],[2.4586450000060722],[0],['target'],Stuti,001,2023-09-15_12h02.53.556,visualsearch,2023.1.3,59.978791512390494,
32,0,32,0,10,79.38398899999447,79.38398899999447,0.025937600003089756,[-0.36666666666666664],[0.002777777777777778],[1],[0],[0],[1.9050581000046805],[0],['target'],Stuti,001,2023-09-15_12h02.53.556,visualsearch,2023.1.3,59.978791512390494,
33,0,33,0,5,81.30247819999931,81.30247819999931,0.01224389998242259,[0.3416666666666667],[0.14629629629629629],[1],[0],[0],[1.718061299994588],[0],['target'],Stuti,001,2023-09-15_12h02.53.556,visualsearch,2023.1.3,59.978791512390494,
34,0,34,0,5,83.03837160003604,83.03837160003604,0.014634899969678372,[0.4842592592592593],[-0.18518518518518517],[1],[0],[0],[1.1157473999774083],[0],['target'],Stuti,001,2023-09-15_12h02.53.556,visualsearch,2023.1.3,59.978791512390494,
35,0,35,0,5,84.17107570002554,84.17107570002554,0.01353589998325333,[-0.47962962962962963],[0.10462962962962963],[1],[0],[0],[1.8499072000267915],[0],['target'],Stuti,001,2023-09-15_12h02.53.556,visualsearch,2023.1.3,59.978791512390494,
36,0,36,0,10,86.05492399999639,86.05492399999639,0.02271160000236705,[0.10462962962962963],[0.3990740740740741],[1],[0],[0],[2.2564093000255525],[0],['target'],Stuti,001,2023-09-15_12h02.53.556,visualsearch,2023.1.3,59.978791512390494,
37,0,37,0,5,88.32084870000836,88.32084870000836,0.012785899976734072,[-0.0962962962962963],[0.17314814814814813],[1],[0],[0],[1.5359397000283934],[0],['target'],Stuti,001,2023-09-15_12h02.53.556,visualsearch,2023.1.3,59.978791512390494,
38,0,38,0,10,89.88918920001015,89.88918920001015,0.023542099981568754,[0.48055555555555557],[0.33240740740740743],[1],[0],[0],[1.3556316000176594],[0],['target'],Stuti,001,2023-09-15_12h02.53.556,visualsearch,2023.1.3,59.978791512390494,
39,0,39,0,5,91.26094200002262,91.26094200002262,0.017336599994450808,[-0.4064814814814815],[-0.1935185185185185],[1],[0],[0],[1.4291345999808982],[0],['target'],Stuti,001,2023-09-15_12h02.53.556,visualsearch,2023.1.3,59.978791512390494,
40,0,40,0,10,92.72610930004157,92.72610930004157,0.02849110000533983,[0.4777777777777778],[-0.28888888888888886],[1],[0],[0],[1.4856612000148743],[0],['target'],Stuti,001,2023-09-15_12h02.53.556,visualsearch,2023.1.3,59.978791512390494,
41,0,41,0,5,94.22314170002937,94.22314170002937,0.013509700016584247,[0.05740740740740741],[0.262037037037037],[1],[0],[0],[1.0171046999748796],[0],['target'],Stuti,001,2023-09-15_12h02.53.556,visualsearch,2023.1.3,59.978791512390494,
42,0,42,0,10,95.27658710000105,95.27658710000105,0.023731899971608073,[-0.04351851851851852],[-0.017592592592592594],[1],[0],[0],[1.9225909000379033],[0],['target'],Stuti,001,2023-09-15_12h02.53.556,visualsearch,2023.1.3,59.978791512390494,
43,0,43,0,10,97.22569150000345,97.22569150000345,0.028297599987126887,[0.33425925925925926],[-0.03888888888888889],[1],[0],[0],[1.4693554999539629],[0],['target'],Stuti,001,2023-09-15_12h02.53.556,visualsearch,2023.1.3,59.978791512390494,
44,0,44,0,5,98.70851070003118,98.70851070003118,0.013630500005092472,[-0.008333333333333333],[0.43333333333333335],[1],[0],[0],[1.200389300007373],[0],['target'],Stuti,001,2023-09-15_12h02.53.556,visualsearch,2023.1.3,59.978791512390494,
45,0,45,0,5,99.92606369999703,99.92606369999703,0.013892700022552162,[0.2638888888888889],[0.017592592592592594],[1],[0],[0],[1.0828450999688357],[0],['target'],Stuti,001,2023-09-15_12h02.53.556,visualsearch,2023.1.3,59.978791512390494,
46,0,46,0,5,101.025782599987,101.025782599987,0.012962799984961748,[-0.43796296296296294],[-0.44166666666666665],[1],[0],[0],[1.5330002999980934],[0],['target'],Stuti,001,2023-09-15_12h02.53.556,visualsearch,2023.1.3,59.978791512390494,
47,0,47,0,5,102.57463029999053,102.57463029999053,0.012406599998939782,[-0.33611111111111114],[-0.05],[1],[0],[0],[1.0344108999706805],[0],['target'],Stuti,001,2023-09-15_12h02.53.556,visualsearch,2023.1.3,59.978791512390494,
48,0,48,0,10,103.64297720004106,103.64297720004106,0.026595300005283207,[0.2101851851851852],[0.05092592592592592],[1],[0],[0],[1.1540170999942347],[0],['target'],Stuti,001,2023-09-15_12h02.53.556,visualsearch,2023.1.3,59.978791512390494,
49,0,49,0,10,104.8271258000168,104.8271258000168,0.02552369999466464,[0.17592592592592593],[0.012037037037037037],[1],[0],[0],[0.6863931000116281],[0],['target'],Stuti,001,2023-09-15_12h02.53.556,visualsearch,2023.1.3,59.978791512390494,
50,0,50,0,5,105.53207890002523,105.53207890002523,0.01658370002405718,[-0.024074074074074074],[-0.037037037037037035],[1],[0],[0],[1.0134710000129417],[0],['target'],Stuti,001,2023-09-15_12h02.53.556,visualsearch,2023.1.3,59.978791512390494,
51,0,51,0,10,106.57823099999223,106.57823099999223,0.02503190003335476,[0.4740740740740741],[-0.44351851851851853],[1],[0],[0],[2.9358718000003137],[0],['target'],Stuti,001,2023-09-15_12h02.53.556,visualsearch,2023.1.3,59.978791512390494,
52,0,52,0,5,109.52879170002416,109.52879170002416,0.013355600007344037,[0.3787037037037037],[0.12685185185185185],[1],[0],[0],[1.2168345999671146],[0],['target'],Stuti,001,2023-09-15_12h02.53.556,visualsearch,2023.1.3,59.978791512390494,
53,0,53,0,5,110.76787740003783,110.76787740003783,0.017372200032696128,[-0.03425925925925926],[0.2222222222222222],[1],[0],[0],[1.1124426999595016],[0],['target'],Stuti,001,2023-09-15_12h02.53.556,visualsearch,2023.1.3,59.978791512390494,
54,0,54,0,10,111.9088625999866,111.9088625999866,0.022907699982170016,[-0.3509259259259259],[-0.19722222222222222],[1],[0],[0],[2.1740684999967925],[0],['target'],Stuti,001,2023-09-15_12h02.53.556,visualsearch,2023.1.3,59.978791512390494,
55,0,55,0,5,114.0936931000324,114.0936931000324,0.012100699997972697,[0.2074074074074074],[-0.22685185185185186],[1],[0],[0],[1.6352785000344738],[0],['target'],Stuti,001,2023-09-15_12h02.53.556,visualsearch,2023.1.3,59.978791512390494,
56,0,56,0,10,115.76025450002635,115.76025450002635,0.0227055000141263,[-0.18333333333333332],[0.14907407407407408],[1],[0],[0],[2.1744869999820367],[0],['target'],Stuti,001,2023-09-15_12h02.53.556,visualsearch,2023.1.3,59.978791512390494,
57,0,57,0,10,117.96148380002705,117.96148380002705,0.023403000028338283,[-0.28703703703703703],[0.37962962962962965],[1],[0],[0],[1.2554109999909997],[0],['target'],Stuti,001,2023-09-15_12h02.53.556,visualsearch,2023.1.3,59.978791512390494,
58,0,58,0,10,119.24591070000315,119.24591070000315,0.02746759995352477,[0.22777777777777777],[-0.2935185185185185],[1],[0],[0],[2.3047241999884136],[0],['target'],Stuti,001,2023-09-15_12h02.53.556,visualsearch,2023.1.3,59.978791512390494,
59,0,59,0,5,121.56385400000727,121.56385400000727,0.01335379999363795,[-0.44722222222222224],[-0.06574074074074074],[1],[0],[0],[2.133384200045839],[0],['target'],Stuti,001,2023-09-15_12h02.53.556,visualsearch,2023.1.3,59.978791512390494,
60,0,60,0,5,123.7128733000136,123.7128733000136,0.012018500012345612,[-0.36574074074074076],[0.45185185185185184],[1],[0],[0],[1.2355771999573335],[0],['target'],Stuti,001,2023-09-15_12h02.53.556,visualsearch,2023.1.3,59.978791512390494,
61,0,61,0,5,124.96375430002809,124.96375430002809,0.012332300015259534,[-0.35555555555555557],[0.12129629629629629],[1],[0],[0],[1.2678479999885894],[0],['target'],Stuti,001,2023-09-15_12h02.53.556,visualsearch,2023.1.3,59.978791512390494,
62,0,62,0,10,126.26881080004387,126.26881080004387,0.02828809997299686,[-0.24537037037037038],[-0.4703703703703704],[1],[0],[0],[3.0517529000062495],[0],['target'],Stuti,001,2023-09-15_12h02.53.556,visualsearch,2023.1.3,59.978791512390494,
63,0,63,0,10,129.34754779998912,129.34754779998912,0.02361979999113828,[0.475],[-0.07962962962962963],[1],[0],[0],[2.1549550999770872],[0],['target'],Stuti,001,2023-09-15_12h02.53.556,visualsearch,2023.1.3,59.978791512390494,
64,0,64,0,5,131.5217927999911,131.5217927999911,0.0163511999999173,[-0.05277777777777778],[-0.3648148148148148],[1],[0],[0],[1.696948800003156],[0],['target'],Stuti,001,2023-09-15_12h02.53.556,visualsearch,2023.1.3,59.978791512390494,
65,0,65,0,5,133.23500480002258,133.23500480002258,0.01307210000231862,[-0.3888888888888889],[-0.06111111111111111],[1],[0],[0],[1.3832314999890514],[0],['target'],Stuti,001,2023-09-15_12h02.53.556,visualsearch,2023.1.3,59.978791512390494,
66,0,66,0,5,134.64445580000756,134.64445580000756,0.02155460003996268,[0.016666666666666666],[0.42777777777777776],[1],[0],[0],[1.9078488000086509],[0],['target'],Stuti,001,2023-09-15_12h02.53.556,visualsearch,2023.1.3,59.978791512390494,
67,0,67,0,5,136.56878120003967,136.56878120003967,0.013390899985097349,[-0.14629629629629629],[0.46944444444444444],[1],[0],[0],[1.249587900005281],[0],['target'],Stuti,001,2023-09-15_12h02.53.556,visualsearch,2023.1.3,59.978791512390494,
68,0,68,0,5,137.8371136999922,137.8371136999922,0.014904200041200966,[-0.13425925925925927],[0.44351851851851853],[1],[0],[0],[0.6659602000145242],[0],['target'],Stuti,001,2023-09-15_12h02.53.556,visualsearch,2023.1.3,59.978791512390494,
69,0,69,0,5,138.52425710001262,138.52425710001262,0.01555690000532195,[0.20092592592592592],[0.06944444444444445],[1],[0],[0],[1.2456068000174128],[0],['target'],Stuti,001,2023-09-15_12h02.53.556,visualsearch,2023.1.3,59.978791512390494,
70,0,70,0,10,139.80041610001354,139.80041610001354,0.023085399996489286,[-0.17962962962962964],[0.13796296296296295],[1],[0],[0],[3.390989299979992],[0],['target'],Stuti,001,2023-09-15_12h02.53.556,visualsearch,2023.1.3,59.978791512390494,
71,0,71,0,5,143.2013513999991,143.2013513999991,0.013082100020255893,[-0.4703703703703704],[-0.09814814814814815],[1],[0],[0],[2.001590200001374],[0],['target'],Stuti,001,2023-09-15_12h02.53.556,visualsearch,2023.1.3,59.978791512390494,
72,0,72,0,5,145.22178290004376,145.22178290004376,0.013545499998144805,[0.225],[-0.4527777777777778],[1],[0],[0],[2.3666253000264987],[0],['target'],Stuti,001,2023-09-15_12h02.53.556,visualsearch,2023.1.3,59.978791512390494,
73,0,73,0,5,147.6067334000254,147.6067334000254,0.01585620001424104,[0.31203703703703706],[0.12407407407407407],[1],[0],[0],[1.9307235999731347],[0],['target'],Stuti,001,2023-09-15_12h02.53.556,visualsearch,2023.1.3,59.978791512390494,
74,0,74,0,10,149.6097075000289,149.6097075000289,0.0489963999716565,[0.38425925925925924],[-0.2064814814814815],[1],[0],[0],[1.3012441999744624],[0],['target'],Stuti,001,2023-09-15_12h02.53.556,visualsearch,2023.1.3,59.978791512390494,
75,0,75,0,5,150.92768820002675,150.92768820002675,0.024273399962112308,[-0.13703703703703704],[-0.05277777777777778],[1],[0],[0],[1.3799119999748655],[0],['target'],Stuti,001,2023-09-15_12h02.53.556,visualsearch,2023.1.3,59.978791512390494,
76,0,76,0,10,152.34130420000292,152.34130420000292,0.02665399998659268,[0.26944444444444443],[-0.3731481481481482],[1],[0],[0],[3.419341299973894],[0],['target'],Stuti,001,2023-09-15_12h02.53.556,visualsearch,2023.1.3,59.978791512390494,
77,0,77,0,5,155.78005140001187,155.78005140001187,0.02031859999988228,[-0.01574074074074074],[-0.2796296296296296],[1],[0],[0],[1.2434856000472791],[0],['target'],Stuti,001,2023-09-15_12h02.53.556,visualsearch,2023.1.3,59.978791512390494,
78,0,78,0,5,157.03993580001406,157.03993580001406,0.012810699990950525,[-0.22037037037037038],[0.28425925925925927],[1],[0],[0],[1.4683355000452138],[0],['target'],Stuti,001,2023-09-15_12h02.53.556,visualsearch,2023.1.3,59.978791512390494,
79,0,79,0,5,158.5277872000006,158.5277872000006,0.015314300020691007,[-0.125],[0.12685185185185185],[1],[0],[0],[1.1960709000122733],[0],['target'],Stuti,001,2023-09-15_12h02.53.556,visualsearch,2023.1.3,59.978791512390494,
80,0,80,0,10,159.75476360000903,159.75476360000903,0.023132800008170307,[-0.08518518518518518],[0.16018518518518518],[1],[0],[0],[0.8405970999738201],[0],['target'],Stuti,001,2023-09-15_12h02.53.556,visualsearch,2023.1.3,59.978791512390494,
81,0,81,0,5,160.60741729999427,160.60741729999427,0.012904100003652275,[-0.09907407407407408],[0.23148148148148148],[1],[0],[0],[1.0175999000202864],[0],['target'],Stuti,001,2023-09-15_12h02.53.556,visualsearch,2023.1.3,59.978791512390494,
82,0,82,0,10,161.6663359000231,161.6663359000231,0.02879329997813329,[-0.03888888888888889],[0.001851851851851852],[1],[0],[0],[0.8478551000007428],[0],['target'],Stuti,001,2023-09-15_12h02.53.556,visualsearch,2023.1.3,59.978791512390494,
83,0,83,0,5,162.52564800000982,162.52564800000982,0.014375500031746924,[-0.4287037037037037],[0.11851851851851852],[1],[0],[0],[1.4332231999724172],[0],['target'],Stuti,001,2023-09-15_12h02.53.556,visualsearch,2023.1.3,59.978791512390494,
84,0,84,0,5,163.97506490000524,163.97506490000524,0.013437199988402426,[-0.11944444444444445],[0.49166666666666664],[1],[0],[0],[2.250729700026568],[0],['target'],Stuti,001,2023-09-15_12h02.53.556,visualsearch,2023.1.3,59.978791512390494,
85,0,85,0,10,166.25843919999897,166.25843919999897,0.024532799958251417,[0.42962962962962964],[-0.34074074074074073],[1],[0],[0],[2.304609899991192],[0],['target'],Stuti,001,2023-09-15_12h02.53.556,visualsearch,2023.1.3,59.978791512390494,
86,0,86,0,5,168.57585890003247,168.57585890003247,0.012536900001578033,[0.17407407407407408],[-0.31203703703703706],[1],[0],[0],[1.234685899980832],[0],['target'],Stuti,001,2023-09-15_12h02.53.556,visualsearch,2023.1.3,59.978791512390494,
87,0,87,0,10,169.84493750002002,169.84493750002002,0.026468299969565123,[-0.05092592592592592],[0.16944444444444445],[1],[0],[0],[1.7542298000189476],[0],['target'],Stuti,001,2023-09-15_12h02.53.556,visualsearch,2023.1.3,59.978791512390494,
88,0,88,0,10,171.62529500003438,171.62529500003438,0.02457250002771616,[-0.362962962962963],[0.06574074074074074],[1],[0],[0],[2.022636999958195],[0],['target'],Stuti,001,2023-09-15_12h02.53.556,visualsearch,2023.1.3,59.978791512390494,
89,0,89,0,10,173.67235400003847,173.67235400003847,0.0224879999877885,[0.05092592592592592],[-0.012962962962962963],[1],[0],[0],[1.5580111999879591],[0],['target'],Stuti,001,2023-09-15_12h02.53.556,visualsearch,2023.1.3,59.978791512390494,
90,0,90,0,5,175.24946840002667,175.24946840002667,0.015173100051470101,[-0.06666666666666667],[-0.05277777777777778],[1],[0],[0],[1.0804680000292137],[0],['target'],Stuti,001,2023-09-15_12h02.53.556,visualsearch,2023.1.3,59.978791512390494,
91,0,91,0,10,176.36075650004204,176.36075650004204,0.023231599945575,[0.22407407407407406],[-0.3731481481481482],[1],[0],[0],[1.7897983000148088],[0],['target'],Stuti,001,2023-09-15_12h02.53.556,visualsearch,2023.1.3,59.978791512390494,
92,0,92,0,10,178.18124810000882,178.18124810000882,0.02802900003734976,[-0.41574074074074074],[-0.13425925925925927],[1],[0],[0],[2.01919890003046],[0],['target'],Stuti,001,2023-09-15_12h02.53.556,visualsearch,2023.1.3,59.978791512390494,
93,0,93,0,10,180.22887839999748,180.22887839999748,0.02485089999390766,[-0.22037037037037038],[0.1],[1],[0],[0],[1.30559699999867],[0],['target'],Stuti,001,2023-09-15_12h02.53.556,visualsearch,2023.1.3,59.978791512390494,
94,0,94,0,10,181.56589460000396,181.56589460000396,0.028745600022375584,[-0.044444444444444446],[0.25833333333333336],[1],[0],[0],[1.9022566000348888],[0],['target'],Stuti,001,2023-09-15_12h02.53.556,visualsearch,2023.1.3,59.978791512390494,
95,0,95,0,5,183.4808372000116,183.4808372000116,0.013182600028812885,[0.3055555555555556],[0.2740740740740741],[1],[0],[0],[1.7343064000015147],[0],['target'],Stuti,001,2023-09-15_12h02.53.556,visualsearch,2023.1.3,59.978791512390494,
96,0,96,0,5,185.23030019999715,185.23030019999715,0.013103600009344518,[-0.12222222222222222],[0.30277777777777776],[1],[0],[0],[1.3335525000002235],[0],['target'],Stuti,001,2023-09-15_12h02.53.556,visualsearch,2023.1.3,59.978791512390494,
97,0,97,0,5,186.581199200009,186.581199200009,0.013237799983471632,[0.44907407407407407],[0.30092592592592593],[1],[0],[0],[1.7179274000227451],[0],['target'],Stuti,001,2023-09-15_12h02.53.556,visualsearch,2023.1.3,59.978791512390494,
98,0,98,0,5,188.31841900001746,188.31841900001746,0.014955799968447536,[0.24259259259259258],[0.03796296296296296],[1],[0],[0],[1.6148287000251003],[0],['target'],Stuti,001,2023-09-15_12h02.53.556,visualsearch,2023.1.3,59.978791512390494,
99,0,99,0,5,189.95093859999906,189.95093859999906,0.012890700018033385,[0.28703703703703703],[-0.12314814814814815],[1],[0],[0],[2.0170701000024565],[0],['target'],Stuti,001,2023-09-15_12h02.53.556,visualsearch,2023.1.3,59.978791512390494,
100,0,100,0,10,192.00038790004328,192.00038790004328,0.026531500043347478,[-0.25462962962962965],[-0.21296296296296297],[1],[0],[0],[2.587799599976279],[0],['target'],Stuti,001,2023-09-15_12h02.53.556,visualsearch,2023.1.3,59.978791512390494,
101,0,101,0,5,194.6017418000265,194.6017418000265,0.01488869998138398,[0.05092592592592592],[-0.20185185185185187],[1],[0],[0],[1.2155274999677204],[0],['target'],Stuti,001,2023-09-15_12h02.53.556,visualsearch,2023.1.3,59.978791512390494,
102,0,102,0,5,195.83305560000008,195.83305560000008,0.011869899986777455,[-0.22407407407407406],[-0.4388888888888889],[1],[0],[0],[2.351927899988368],[0],['target'],Stuti,001,2023-09-15_12h02.53.556,visualsearch,2023.1.3,59.978791512390494,
103,0,103,0,10,198.2237913000281,198.2237913000281,0.028860900027211756,[0.4685185185185185],[-0.4722222222222222],[1],[0],[0],[2.0402341000153683],[0],['target'],Stuti,001,2023-09-15_12h02.53.556,visualsearch,2023.1.3,59.978791512390494,
104,0,104,0,5,200.30255990003934,200.30255990003934,0.026602700003422797,[-0.4425925925925926],[0.2675925925925926],[1],[0],[0],[1.7748105999780819],[0],['target'],Stuti,001,2023-09-15_12h02.53.556,visualsearch,2023.1.3,59.978791512390494,
105,0,105,0,5,202.10893580003176,202.10893580003176,0.027906800038181245,[0.31203703703703706],[-0.16296296296296298],[1],[0],[0],[1.9164997999905609],[0],['target'],Stuti,001,2023-09-15_12h02.53.556,visualsearch,2023.1.3,59.978791512390494,
106,0,106,0,5,204.06070620001992,204.06070620001992,0.02990760002285242,[-0.3212962962962963],[-0.07962962962962963],[1],[0],[0],[1.7148657999932766],[0],['target'],Stuti,001,2023-09-15_12h02.53.556,visualsearch,2023.1.3,59.978791512390494,
107,0,107,0,5,205.79612070001895,205.79612070001895,0.019937500008381903,[-0.32592592592592595],[0.3398148148148148],[1],[0],[0],[1.2404962999862619],[0],['target'],Stuti,001,2023-09-15_12h02.53.556,visualsearch,2023.1.3,59.978791512390494,
108,0,108,0,10,207.0767147000297,207.0767147000297,0.02696350001497194,[-0.3101851851851852],[0.4212962962962963],[1],[0],[0],[1.7079883000114933],[0],['target'],Stuti,001,2023-09-15_12h02.53.556,visualsearch,2023.1.3,59.978791512390494,
109,0,109,0,5,208.8313014000305,208.8313014000305,0.03856319998158142,[-0.012037037037037037],[-0.36666666666666664],[1],[0],[0],[1.7480458000209183],[0],['target'],Stuti,001,2023-09-15_12h02.53.556,visualsearch,2023.1.3,59.978791512390494,
110,0,110,0,10,210.62095320003573,210.62095320003573,0.035496899974532425,[-0.23796296296296296],[-0.31851851851851853],[1],[0],[0],[1.4749613999738358],[0],['target'],Stuti,001,2023-09-15_12h02.53.556,visualsearch,2023.1.3,59.978791512390494,
111,0,111,0,5,212.16711330000544,212.16711330000544,0.0526774000027217,[0.21481481481481482],[0.2101851851851852],[1],[0],[0],[1.4250035000150092],[0],['target'],Stuti,001,2023-09-15_12h02.53.556,visualsearch,2023.1.3,59.978791512390494,
112,0,112,0,5,213.626939400041,213.626939400041,0.03973830002360046,[0.2111111111111111],[0.28425925925925927],[1],[0],[0],[1.1697970000095665],[0],['target'],Stuti,001,2023-09-15_12h02.53.556,visualsearch,2023.1.3,59.978791512390494,
113,0,113,0,5,214.83979840000393,214.83979840000393,0.03419510001549497,[0.09722222222222222],[0.17685185185185184],[1],[0],[0],[1.1431465999921784],[0],['target'],Stuti,001,2023-09-15_12h02.53.556,visualsearch,2023.1.3,59.978791512390494,
114,0,114,0,5,216.0017759000184,216.0017759000184,0.021867500036023557,[-0.19814814814814816],[-0.14907407407407408],[1],[0],[0],[1.3069794999901205],[0],['target'],Stuti,001,2023-09-15_12h02.53.556,visualsearch,2023.1.3,59.978791512390494,
115,0,115,0,10,217.38421749998815,217.38421749998815,0.0600432000355795,[-0.4722222222222222],[0.3],[1],[0],[0],[3.471386799996253],[0],['target'],Stuti,001,2023-09-15_12h02.53.556,visualsearch,2023.1.3,59.978791512390494,
116,0,116,0,10,220.93212880002102,220.93212880002102,0.05836460000136867,[0.019444444444444445],[0.17407407407407408],[1],[0],[0],[1.1757441000081599],[0],['target'],Stuti,001,2023-09-15_12h02.53.556,visualsearch,2023.1.3,59.978791512390494,
117,0,117,0,10,222.14063620002707,222.14063620002707,0.0401733000180684,[0.3055555555555556],[-0.4981481481481482],[1],[0],[0],[5.015150599996559],[0],['target'],Stuti,001,2023-09-15_12h02.53.556,visualsearch,2023.1.3,59.978791512390494,
118,0,118,0,10,227.222607600037,227.222607600037,0.031156500044744462,[-0.19722222222222222],[-0.35833333333333334],[1],[0],[0],[3.00066489999881],[0],['target'],Stuti,001,2023-09-15_12h02.53.556,visualsearch,2023.1.3,59.978791512390494,
119,0,119,0,10,230.24912170000607,230.24912170000607,0.04814719996647909,[0.3638888888888889],[-0.10648148148148148],[1],[0],[0],[2.2954067999962717],[0],['target'],Stuti,001,2023-09-15_12h02.53.556,visualsearch,2023.1.3,59.978791512390494,
120,0,120,0,5,232.57455140003003,232.57455140003003,0.024860499950591475,[0.004629629629629629],[-0.3712962962962963],[1],[0],[0],[1.3396124999853782],[0],['target'],Stuti,001,2023-09-15_12h02.53.556,visualsearch,2023.1.3,59.978791512390494,
121,0,121,0,10,233.9599271999905,233.9599271999905,0.0338190000038594,[-0.24259259259259258],[0.3138888888888889],[1],[0],[0],[2.544481699995231],[0],['target'],Stuti,001,2023-09-15_12h02.53.556,visualsearch,2023.1.3,59.978791512390494,
122,0,122,0,5,236.5307090000133,236.5307090000133,0.0259576000389643,[-0.125],[0.23981481481481481],[1],[0],[0],[1.0835803999798372],[0],['target'],Stuti,001,2023-09-15_12h02.53.556,visualsearch,2023.1.3,59.978791512390494,
123,0,123,0,5,237.64852940000128,237.64852940000128,0.025538099987898022,[-0.28425925925925927],[-0.11296296296296296],[1],[0],[0],[1.2693424000171944],[0],['target'],Stuti,001,2023-09-15_12h02.53.556,visualsearch,2023.1.3,59.978791512390494,
124,0,124,0,10,238.96567380003398,238.96567380003398,0.044690600014291704,[-0.4185185185185185],[-0.16666666666666666],[1],[0],[0],[1.8111043000244536],[0],['target'],Stuti,001,2023-09-15_12h02.53.556,visualsearch,2023.1.3,59.978791512390494,
125,0,125,0,10,240.8366081000422,240.8366081000422,0.047163099981844425,[-0.41203703703703703],[-0.12129629629629629],[1],[0],[0],[1.3454732000245713],[0],['target'],Stuti,001,2023-09-15_12h02.53.556,visualsearch,2023.1.3,59.978791512390494,
126,0,126,0,5,242.20659080002224,242.20659080002224,0.02490720001515001,[-0.20925925925925926],[0.024074074074074074],[1],[0],[0],[1.0435796999954619],[0],['target'],Stuti,001,2023-09-15_12h02.53.556,visualsearch,2023.1.3,59.978791512390494,
127,0,127,0,10,243.28240540000843,243.28240540000843,0.02625240001361817,[-0.09074074074074075],[0.2518518518518518],[1],[0],[0],[1.4255312000168487],[0],['target'],Stuti,001,2023-09-15_12h02.53.556,visualsearch,2023.1.3,59.978791512390494,
128,0,128,0,5,244.7445137000177,244.7445137000177,0.03015489998506382,[-0.30925925925925923],[0.09351851851851851],[1],[0],[0],[1.3549068000284024],[0],['target'],Stuti,001,2023-09-15_12h02.53.556,visualsearch,2023.1.3,59.978791512390494,
129,0,129,0,10,246.15674190002028,246.15674190002028,0.04830800002673641,[0.013888888888888888],[-0.4444444444444444],[1],[0],[0],[2.4688840999733657],[0],['target'],Stuti,001,2023-09-15_12h02.53.556,visualsearch,2023.1.3,59.978791512390494,
130,0,130,0,5,248.6527740000165,248.6527740000165,0.024347600003238767,[0.26944444444444443],[-0.43148148148148147],[1],[0],[0],[1.329368999984581],[0],['target'],Stuti,001,2023-09-15_12h02.53.556,visualsearch,2023.1.3,59.978791512390494,
131,0,131,0,10,250.04045999998925,250.04045999998925,0.044902299996465445,[-0.4842592592592593],[0.41759259259259257],[1],[0],[0],[2.7551702999626286],[0],['target'],Stuti,001,2023-09-15_12h02.53.556,visualsearch,2023.1.3,59.978791512390494,
132,0,132,0,5,252.82410190004157,252.82410190004157,0.028242699976544827,[-0.34074074074074073],[0.21851851851851853],[1],[0],[0],[1.1598856000346132],[0],['target'],Stuti,001,2023-09-15_12h02.53.556,visualsearch,2023.1.3,59.978791512390494,
133,0,133,0,10,254.04788369999733,254.04788369999733,0.04626510001253337,[0.13333333333333333],[0.4685185185185185],[1],[0],[0],[4.51130730001023],[0],['target'],Stuti,001,2023-09-15_12h02.53.556,visualsearch,2023.1.3,59.978791512390494,
134,0,134,0,5,258.5815658000065,258.5815658000065,0.026564599946141243,[-0.3453703703703704],[-0.2351851851851852],[1],[0],[0],[2.2061837000073865],[0],['target'],Stuti,001,2023-09-15_12h02.53.556,visualsearch,2023.1.3,59.978791512390494,
135,0,135,0,10,260.8542443999904,260.8542443999904,0.049459600006230175,[0.12037037037037036],[-0.24074074074074073],[1],[0],[0],[1.6571461000130512],[0],['target'],Stuti,001,2023-09-15_12h02.53.556,visualsearch,2023.1.3,59.978791512390494,
136,0,136,0,10,262.55345330003183,262.55345330003183,0.039888700004667044,[0.4212962962962963],[-0.1814814814814815],[1],[0],[0],[1.706376799964346],[0],['target'],Stuti,001,2023-09-15_12h02.53.556,visualsearch,2023.1.3,59.978791512390494,
137,0,137,0,10,264.3004105000291,264.3004105000291,0.038663199986331165,[-0.0962962962962963],[0.22407407407407406],[1],[0],[0],[1.2763142000185326],[0],['target'],Stuti,001,2023-09-15_12h02.53.556,visualsearch,2023.1.3,59.978791512390494,
138,0,138,0,10,265.62870510003995,265.62870510003995,0.04011619999073446,[-0.30925925925925923],[0.35],[1],[0],[0],[1.5732799000106752],[0],['target'],Stuti,001,2023-09-15_12h02.53.556,visualsearch,2023.1.3,59.978791512390494,
139,0,139,0,5,267.2287977000233,267.2287977000233,0.027601499983575195,[-0.40185185185185185],[0.3712962962962963],[1],[0],[0],[1.0110862999572419],[0],['target'],Stuti,001,2023-09-15_12h02.53.556,visualsearch,2023.1.3,59.978791512390494,
140,0,140,0,10,268.30045050004264,268.30045050004264,0.049073099973611534,[-0.4222222222222222],[-0.2324074074074074],[1],[0],[0],[1.3797207999741659],[0],['target'],Stuti,001,2023-09-15_12h02.53.556,visualsearch,2023.1.3,59.978791512390494,
141,0,141,0,5,269.6910693999962,269.6910693999962,0.013974899949971586,[0.4324074074074074],[0.03981481481481482],[1],[0],[0],[1.5639187000342645],[0],['target'],Stuti,001,2023-09-15_12h02.53.556,visualsearch,2023.1.3,59.978791512390494,
142,0,142,0,5,271.2956163000199,271.2956163000199,0.026392599975224584,[-0.34444444444444444],[-0.40925925925925927],[1],[0],[0],[1.8003645000280812],[0],['target'],Stuti,001,2023-09-15_12h02.53.556,visualsearch,2023.1.3,59.978791512390494,
143,0,143,0,5,273.1304076000233,273.1304076000233,0.027827000012621284,[0.08611111111111111],[-0.46944444444444444],[1],[0],[0],[1.748573100019712],[0],['target'],Stuti,001,2023-09-15_12h02.53.556,visualsearch,2023.1.3,59.978791512390494,
144,0,144,0,5,274.91304020001553,274.91304020001553,0.027519900002516806,[0.27685185185185185],[-0.030555555555555555],[1],[0],[0],[1.2157483999617398],[0],['target'],Stuti,001,2023-09-15_12h02.53.556,visualsearch,2023.1.3,59.978791512390494,
145,0,145,0,5,276.1546042000409,276.1546042000409,0.02400360000319779,[0.05185185185185185],[-0.39166666666666666],[1],[0],[0],[1.2358545999741182],[0],['target'],Stuti,001,2023-09-15_12h02.53.556,visualsearch,2023.1.3,59.978791512390494,
146,0,146,0,5,277.4199152000365,277.4199152000365,0.01986100000794977,[-0.4111111111111111],[-0.4546296296296296],[1],[0],[0],[1.6749360000248998],[0],['target'],Stuti,001,2023-09-15_12h02.53.556,visualsearch,2023.1.3,59.978791512390494,
147,0,147,0,10,279.15244219999295,279.15244219999295,0.04818489996250719,[-0.11666666666666667],[-0.29444444444444445],[1],[0],[0],[1.2344334999797866],[0],['target'],Stuti,001,2023-09-15_12h02.53.556,visualsearch,2023.1.3,59.978791512390494,
148,0,148,0,5,280.41458139999304,280.41458139999304,0.025280300003942102,[-0.487962962962963],[0.1287037037037037],[1],[0],[0],[1.5629935000324622],[0],['target'],Stuti,001,2023-09-15_12h02.53.556,visualsearch,2023.1.3,59.978791512390494,
149,0,149,0,5,282.0183903000434,282.0183903000434,0.029125900007784367,[-0.4564814814814815],[-0.12962962962962962],[1],[0],[0],[1.2630253999959677],[0],['target'],Stuti,001,2023-09-15_12h02.53.556,visualsearch,2023.1.3,59.978791512390494,
150,0,150,0,10,283.3402367000235,283.3402367000235,0.052348600002005696,[-0.30833333333333335],[-0.3314814814814815],[1],[0],[0],[1.6207892000093125],[0],['target'],Stuti,001,2023-09-15_12h02.53.556,visualsearch,2023.1.3,59.978791512390494,
151,0,151,0,5,284.9901513000368,284.9901513000368,0.02657250000629574,[0.08333333333333333],[0.08981481481481482],[1],[0],[0],[1.4055506000295281],[0],['target'],Stuti,001,2023-09-15_12h02.53.556,visualsearch,2023.1.3,59.978791512390494,
152,0,152,0,5,286.4270586000057,286.4270586000057,0.02416769997216761,[-0.2824074074074074],[0.3148148148148148],[1],[0],[0],[1.8192721000523306],[0],['target'],Stuti,001,2023-09-15_12h02.53.556,visualsearch,2023.1.3,59.978791512390494,
153,0,153,0,10,288.31857740000123,288.31857740000123,0.05496580002363771,[0.3333333333333333],[0.43796296296296294],[1],[0],[0],[1.8854963000048883],[0],['target'],Stuti,001,2023-09-15_12h02.53.556,visualsearch,2023.1.3,59.978791512390494,
154,0,154,0,5,290.2096332000219,290.2096332000219,0.012689399998635054,[-0.325],[0.4111111111111111],[1],[0],[0],[1.1346264999592677],[0],['target'],Stuti,001,2023-09-15_12h02.53.556,visualsearch,2023.1.3,59.978791512390494,
155,0,155,0,10,291.37326379999286,291.37326379999286,0.022734099999070168,[-0.3787037037037037],[0.02962962962962963],[1],[0],[0],[1.5569904999574646],[0],['target'],Stuti,001,2023-09-15_12h02.53.556,visualsearch,2023.1.3,59.978791512390494,
156,0,156,0,10,292.9593920999905,292.9593920999905,0.02502270002150908,[-0.18333333333333332],[-0.34074074074074073],[1],[0],[0],[1.8722803999553435],[0],['target'],Stuti,001,2023-09-15_12h02.53.556,visualsearch,2023.1.3,59.978791512390494,
157,0,157,0,10,294.86135210003704,294.86135210003704,0.027939199993852526,[0.4685185185185185],[0.1361111111111111],[1],[0],[0],[2.1031188999768347],[0],['target'],Stuti,001,2023-09-15_12h02.53.556,visualsearch,2023.1.3,59.978791512390494,
158,0,158,0,5,296.9772523000138,296.9772523000138,0.012967599963303655,[0.32407407407407407],[0.38981481481481484],[1],[0],[0],[1.1175293999840505],[0],['target'],Stuti,001,2023-09-15_12h02.53.556,visualsearch,2023.1.3,59.978791512390494,
159,0,159,0,10,298.13149370002793,298.13149370002793,0.02845270000398159,[-0.06574074074074074],[-0.4787037037037037],[1],[0],[0],[3.352013800002169],[0],['target'],Stuti,001,2023-09-15_12h02.53.556,visualsearch,2023.1.3,59.978791512390494,
160,0,160,0,5,301.5021114000119,301.5021114000119,0.016400499967858195,[0.22962962962962963],[-0.16574074074074074],[1],[0],[0],[1.3460239000269212],[0],['target'],Stuti,001,2023-09-15_12h02.53.556,visualsearch,2023.1.3,59.978791512390494,
161,0,161,0,5,302.8702643000288,302.8702643000288,0.0184414999675937,[-0.3472222222222222],[-0.41759259259259257],[1],[0],[0],[1.777861600043252],[0],['target'],Stuti,001,2023-09-15_12h02.53.556,visualsearch,2023.1.3,59.978791512390494,
162,0,162,0,5,304.66225699998904,304.66225699998904,0.012700499966740608,[-0.21296296296296297],[-0.3972222222222222],[1],[0],[0],[1.3180340999970213],[0],['target'],Stuti,001,2023-09-15_12h02.53.556,visualsearch,2023.1.3,59.978791512390494,
163,0,163,0,10,306.01436999998987,306.01436999998987,0.02725559996906668,[-0.06666666666666667],[0.28888888888888886],[1],[0],[0],[1.5362884000060149],[0],['target'],Stuti,001,2023-09-15_12h02.53.556,visualsearch,2023.1.3,59.978791512390494,
164,0,164,0,5,307.56950819998747,307.56950819998747,0.016252200002782047,[0.08148148148148149],[-0.4666666666666667],[1],[0],[0],[2.1134786999900825],[0],['target'],Stuti,001,2023-09-15_12h02.53.556,visualsearch,2023.1.3,59.978791512390494,
165,0,165,0,10,309.7142402000027,309.7142402000027,0.023431100009474903,[0.17777777777777778],[0.003703703703703704],[1],[0],[0],[1.0715020999778062],[0],['target'],Stuti,001,2023-09-15_12h02.53.556,visualsearch,2023.1.3,59.978791512390494,
166,0,166,0,10,310.81307110004127,310.81307110004127,0.02487919997656718,[0.25833333333333336],[0.1175925925925926],[1],[0],[0],[1.07199640001636],[0],['target'],Stuti,001,2023-09-15_12h02.53.556,visualsearch,2023.1.3,59.978791512390494,
167,0,167,0,5,311.89928419998614,311.89928419998614,0.014392099983524531,[0.19074074074074074],[0.3574074074074074],[1],[0],[0],[1.7504442000063136],[0],['target'],Stuti,001,2023-09-15_12h02.53.556,visualsearch,2023.1.3,59.978791512390494,
168,0,168,0,10,313.6786441000295,313.6786441000295,0.023017400002572685,[-0.2101851851851852],[-0.362962962962963],[1],[0],[0],[2.090315399982501],[0],['target'],Stuti,001,2023-09-15_12h02.53.556,visualsearch,2023.1.3,59.978791512390494,
169,0,169,0,5,315.7829778000014,315.7829778000014,0.01336849998915568,[-0.13148148148148148],[-0.19722222222222222],[1],[0],[0],[1.0339423000114039],[0],['target'],Stuti,001,2023-09-15_12h02.53.556,visualsearch,2023.1.3,59.978791512390494,
170,0,170,0,10,316.84676019998733,316.84676019998733,0.02308940002694726,[0.26944444444444443],[0.47314814814814815],[1],[0],[0],[2.3242580000078306],[0],['target'],Stuti,001,2023-09-15_12h02.53.556,visualsearch,2023.1.3,59.978791512390494,
171,0,171,0,5,319.1827625000151,319.1827625000151,0.012619299988728017,[-0.3453703703703704],[-0.017592592592592594],[1],[0],[0],[2.034648000029847],[0],['target'],Stuti,001,2023-09-15_12h02.53.556,visualsearch,2023.1.3,59.978791512390494,
172,0,172,0,5,321.23411510000005,321.23411510000005,0.012304300034884363,[0.4222222222222222],[0.05277777777777778],[1],[0],[0],[1.2184694999596104],[0],['target'],Stuti,001,2023-09-15_12h02.53.556,visualsearch,2023.1.3,59.978791512390494,
173,0,173,0,10,322.4825759000378,322.4825759000378,0.02304939995519817,[0.13796296296296295],[0.3314814814814815],[1],[0],[0],[1.188360600033775],[0],['target'],Stuti,001,2023-09-15_12h02.53.556,visualsearch,2023.1.3,59.978791512390494,
174,0,174,0,10,323.705507900042,323.705507900042,0.031011300045065582,[-0.18981481481481483],[-0.14629629629629629],[1],[0],[0],[1.3000539999920875],[0],['target'],Stuti,001,2023-09-15_12h02.53.556,visualsearch,2023.1.3,59.978791512390494,
175,0,175,0,5,325.0173760000034,325.0173760000034,0.012945099966600537,[0.2638888888888889],[-0.3138888888888889],[1],[0],[0],[1.6181286000064574],[0],['target'],Stuti,001,2023-09-15_12h02.53.556,visualsearch,2023.1.3,59.978791512390494,
176,0,176,0,10,326.67579900001874,326.67579900001874,0.030194199993275106,[0.2796296296296296],[-0.2064814814814815],[1],[0],[0],[1.233394999988377],[0],['target'],Stuti,001,2023-09-15_12h02.53.556,visualsearch,2023.1.3,59.978791512390494,
177,0,177,0,5,327.9178355000331,327.9178355000331,0.012340900022536516,[0.3175925925925926],[-0.14166666666666666],[1],[0],[0],[0.7680638000019826],[0],['target'],Stuti,001,2023-09-15_12h02.53.556,visualsearch,2023.1.3,59.978791512390494,
178,0,178,0,5,328.7077719999943,328.7077719999943,0.017707200022414327,[-0.40555555555555556],[0.47962962962962963],[1],[0],[0],[3.0965970000252128],[0],['target'],Stuti,001,2023-09-15_12h02.53.556,visualsearch,2023.1.3,59.978791512390494,
179,0,179,0,5,331.82301370002097,331.82301370002097,0.013084399979561567,[0.062037037037037036],[0.4787037037037037],[1],[0],[0],[1.5658717000042088],[0],['target'],Stuti,001,2023-09-15_12h02.53.556,visualsearch,2023.1.3,59.978791512390494,
180,0,180,0,5,333.40357439999934,333.40357439999934,0.012918399996124208,[0.41203703703703703],[-0.18888888888888888],[1],[0],[0],[1.7669567000120878],[0],['target'],Stuti,001,2023-09-15_12h02.53.556,visualsearch,2023.1.3,59.978791512390494,
181,0,181,0,10,335.20142500003567,335.20142500003567,0.02317810000386089,[-0.23703703703703705],[-0.012962962962962963],[1],[0],[0],[2.3409635000280105],[0],['target'],Stuti,001,2023-09-15_12h02.53.556,visualsearch,2023.1.3,59.978791512390494,
182,0,182,0,10,337.57143830001587,337.57143830001587,0.02527459996053949,[-0.2916666666666667],[-0.4351851851851852],[1],[0],[0],[2.069862100004684],[0],['target'],Stuti,001,2023-09-15_12h02.53.556,visualsearch,2023.1.3,59.978791512390494,
183,0,183,0,5,339.6541234999895,339.6541234999895,0.012269800005014986,[0.26666666666666666],[0.2175925925925926],[1],[0],[0],[1.3184548999997787],[0],['target'],Stuti,001,2023-09-15_12h02.53.556,visualsearch,2023.1.3,59.978791512390494,
184,0,184,0,10,341.0038982999977,341.0038982999977,0.022533400042448193,[-0.037037037037037035],[0.10277777777777777],[1],[0],[0],[2.3081753999576904],[0],['target'],Stuti,001,2023-09-15_12h02.53.556,visualsearch,2023.1.3,59.978791512390494,
185,0,185,0,10,343.33910630003083,343.33910630003083,0.02577969996491447,[0.39814814814814814],[0.4787037037037037],[1],[0],[0],[2.7883437999989837],[0],['target'],Stuti,001,2023-09-15_12h02.53.556,visualsearch,2023.1.3,59.978791512390494,
186,0,186,0,5,346.139544100035,346.139544100035,0.012770499975886196,[0.2962962962962963],[-0.06296296296296296],[1],[0],[0],[1.6352149000158533],[0],['target'],Stuti,001,2023-09-15_12h02.53.556,visualsearch,2023.1.3,59.978791512390494,
187,0,187,0,10,347.8052220999962,347.8052220999962,0.023078300000634044,[-0.2833333333333333],[0.014814814814814815],[1],[0],[0],[1.5739004000206478],[0],['target'],Stuti,001,2023-09-15_12h02.53.556,visualsearch,2023.1.3,59.978791512390494,
188,0,188,0,10,349.40819550002925,349.40819550002925,0.025457600015215576,[-0.31296296296296294],[0.3962962962962963],[1],[0],[0],[2.2048177999677137],[0],['target'],Stuti,001,2023-09-15_12h02.53.556,visualsearch,2023.1.3,59.978791512390494,
189,0,189,0,5,351.62496340001235,351.62496340001235,0.012616600026376545,[-0.38981481481481484],[-0.4074074074074074],[1],[0],[0],[1.7682814999716356],[0],['target'],Stuti,001,2023-09-15_12h02.53.556,visualsearch,2023.1.3,59.978791512390494,
190,0,190,0,10,353.42299280001316,353.42299280001316,0.023255700012668967,[0.21481481481481482],[0.3388888888888889],[1],[0],[0],[1.5900748999556527],[0],['target'],Stuti,001,2023-09-15_12h02.53.556,visualsearch,2023.1.3,59.978791512390494,
191,0,191,0,5,355.02613559999736,355.02613559999736,0.013092499983031303,[0.30462962962962964],[-0.07685185185185185],[1],[0],[0],[1.6011824000161141],[0],['target'],Stuti,001,2023-09-15_12h02.53.556,visualsearch,2023.1.3,59.978791512390494,
192,0,192,0,5,356.6517543999944,356.6517543999944,0.020544799976050854,[-0.22962962962962963],[-0.17407407407407408],[1],[0],[0],[1.4592391999904066],[0],['target'],Stuti,001,2023-09-15_12h02.53.556,visualsearch,2023.1.3,59.978791512390494,
193,0,193,0,5,358.1285487000132,358.1285487000132,0.012706000008620322,[-0.4648148148148148],[0.43703703703703706],[1],[0],[0],[2.034053799987305],[0],['target'],Stuti,001,2023-09-15_12h02.53.556,visualsearch,2023.1.3,59.978791512390494,
194,0,194,0,5,360.1795618000324,360.1795618000324,0.014889799989759922,[-0.49537037037037035],[0.3962962962962963],[1],[0],[0],[0.7489717000280507],[0],['target'],Stuti,001,2023-09-15_12h02.53.556,visualsearch,2023.1.3,59.978791512390494,
195,0,195,0,5,360.94858860003296,360.94858860003296,0.015864200016949326,[-0.25833333333333336],[0.23148148148148148],[1],[0],[0],[1.1301420999807306],[0],['target'],Stuti,001,2023-09-15_12h02.53.556,visualsearch,2023.1.3,59.978791512390494,
196,0,196,0,10,362.11518530000467,362.11518530000467,0.027152399998158216,[-0.0712962962962963],[-0.21481481481481482],[1],[0],[0],[2.385862700000871],[0],['target'],Stuti,001,2023-09-15_12h02.53.556,visualsearch,2023.1.3,59.978791512390494,
197,0,197,0,10,364.52633510000305,364.52633510000305,0.024228299967944622,[0.3768518518518518],[-0.24537037037037038],[1],[0],[0],[1.37347829999635],[0],['target'],Stuti,001,2023-09-15_12h02.53.556,visualsearch,2023.1.3,59.978791512390494,
198,0,198,0,5,365.9142861000146,365.9142861000146,0.012593500025104731,[-0.3990740740740741],[0.36018518518518516],[1],[0],[0],[2.3178421999909915],[0],['target'],Stuti,001,2023-09-15_12h02.53.556,visualsearch,2023.1.3,59.978791512390494,
199,0,199,0,10,368.2622204000363,368.2622204000363,0.02287729998352006,[-0.39444444444444443],[0.13055555555555556],[1],[0],[0],[2.740311300032772],[0],['target'],Stuti,001,2023-09-15_12h02.53.556,visualsearch,2023.1.3,59.978791512390494,
