trials.thisRepN,trials.thisTrialN,trials.thisN,trials.thisIndex,num_distr,fixation.started,target.started,mouse.started,mouse.x,mouse.y,mouse.leftButton,mouse.midButton,mouse.rightButton,mouse.time,mouse.corr,mouse.clicked_name,participant,session,date,expName,psychopyVersion,frameRate,
0,0,0,0,10,22.9055658999132,22.9055658999132,0.07789770001545548,[0.26481481481481484],[0.3685185185185185],[1],[0],[0],[2.5890990999760106],[0],['target'],694694,001,2023-09-28_14h56.00.321,visualsearch,2023.1.3,59.968756277437926,
1,0,1,0,5,25.48969939991366,25.48969939991366,0.012936100014485419,[0.006481481481481481],[0.25],[1],[0],[0],[1.9035958999302238],[0],['target'],694694,001,2023-09-28_14h56.00.321,visualsearch,2023.1.3,59.968756277437926,
2,0,2,0,5,27.408403299981728,27.408403299981728,0.012727299937978387,[0.06388888888888888],[0.12222222222222222],[1],[0],[0],[1.315509199979715],[0],['target'],694694,001,2023-09-28_14h56.00.321,visualsearch,2023.1.3,59.968756277437926,
3,0,3,0,10,28.756023099995218,28.756023099995218,0.023496299982070923,[0.09907407407407408],[0.4324074074074074],[1],[0],[0],[1.5395010000793263],[0],['target'],694694,001,2023-09-28_14h56.00.321,visualsearch,2023.1.3,59.968756277437926,
4,0,4,0,5,30.30516639992129,30.30516639992129,0.01156819995958358,[0.4305555555555556],[0.04351851851851852],[1],[0],[0],[1.7860742000630125],[0],['target'],694694,001,2023-09-28_14h56.00.321,visualsearch,2023.1.3,59.968756277437926,
5,0,5,0,10,32.1280552999815,32.1280552999815,0.027502599987201393,[-0.5027777777777778],[-0.4],[1],[0],[0],[1.7170166000723839],[0],['target'],694694,001,2023-09-28_14h56.00.321,visualsearch,2023.1.3,59.968756277437926,
6,0,6,0,10,33.871658799936995,33.871658799936995,0.023575800005346537,[-0.16944444444444445],[0.24537037037037038],[1],[0],[0],[1.7575414000311866],[0],['target'],694694,001,2023-09-28_14h56.00.321,visualsearch,2023.1.3,59.968756277437926,
7,0,7,0,10,35.6556662999792,35.6556662999792,0.023688600049354136,[-0.262037037037037],[0.08425925925925926],[1],[0],[0],[1.373877300065942],[0],['target'],694694,001,2023-09-28_14h56.00.321,visualsearch,2023.1.3,59.968756277437926,
8,0,8,0,5,37.04620599991176,37.04620599991176,0.015968300052918494,[0.05277777777777778],[-0.03425925925925926],[1],[0],[0],[1.3803586000576615],[0],['target'],694694,001,2023-09-28_14h56.00.321,visualsearch,2023.1.3,59.968756277437926,
9,0,9,0,5,38.44268839992583,38.44268839992583,0.012335100094787776,[-0.48333333333333334],[0.39166666666666666],[1],[0],[0],[2.1509450000012293],[0],['target'],694694,001,2023-09-28_14h56.00.321,visualsearch,2023.1.3,59.968756277437926,
10,0,10,0,5,40.61025659996085,40.61025659996085,0.012586699915118515,[0.41944444444444445],[-0.2064814814814815],[1],[0],[0],[1.5507252999814227],[0],['target'],694694,001,2023-09-28_14h56.00.321,visualsearch,2023.1.3,59.968756277437926,
11,0,11,0,10,42.19284749997314,42.19284749997314,0.02359750005416572,[0.22314814814814815],[-0.12407407407407407],[1],[0],[0],[1.972967200097628],[0],['target'],694694,001,2023-09-28_14h56.00.321,visualsearch,2023.1.3,59.968756277437926,
12,0,12,0,5,44.176222599926405,44.176222599926405,0.011610399931669235,[0.1425925925925926],[0.12314814814814815],[1],[0],[0],[1.4020960999187082],[0],['target'],694694,001,2023-09-28_14h56.00.321,visualsearch,2023.1.3,59.968756277437926,
13,0,13,0,10,45.610642899991944,45.610642899991944,0.02401069994084537,[0.41944444444444445],[0.1361111111111111],[1],[0],[0],[1.7555702000390738],[0],['target'],694694,001,2023-09-28_14h56.00.321,visualsearch,2023.1.3,59.968756277437926,
14,0,14,0,10,47.39275849994738,47.39275849994738,0.022743699955753982,[0.4287037037037037],[-0.4027777777777778],[1],[0],[0],[2.975145800039172],[0],['target'],694694,001,2023-09-28_14h56.00.321,visualsearch,2023.1.3,59.968756277437926,
15,0,15,0,5,50.38713889999781,50.38713889999781,0.017712799948640168,[-0.1],[0.24722222222222223],[1],[0],[0],[1.4608311000047252],[0],['target'],694694,001,2023-09-28_14h56.00.321,visualsearch,2023.1.3,59.968756277437926,
16,0,16,0,5,51.8637220999226,51.8637220999226,0.012920900015160441,[-0.337037037037037],[-0.2796296296296296],[1],[0],[0],[1.4829282000428066],[0],['target'],694694,001,2023-09-28_14h56.00.321,visualsearch,2023.1.3,59.968756277437926,
17,0,17,0,10,53.378665299969725,53.378665299969725,0.02329270006157458,[-0.3277777777777778],[-0.40370370370370373],[1],[0],[0],[1.6893870999338105],[0],['target'],694694,001,2023-09-28_14h56.00.321,visualsearch,2023.1.3,59.968756277437926,
18,0,18,0,5,55.07906349992845,55.07906349992845,0.012016699998639524,[-0.026851851851851852],[-0.42314814814814816],[1],[0],[0],[1.752421100041829],[0],['target'],694694,001,2023-09-28_14h56.00.321,visualsearch,2023.1.3,59.968756277437926,
19,0,19,0,10,56.8638251000084,56.8638251000084,0.02468169992789626,[0.2740740740740741],[0.12962962962962962],[1],[0],[0],[1.5716423999983817],[0],['target'],694694,001,2023-09-28_14h56.00.321,visualsearch,2023.1.3,59.968756277437926,
20,0,20,0,10,58.46214309998322,58.46214309998322,0.023951300070621073,[0.47129629629629627],[0.17222222222222222],[1],[0],[0],[1.4571319000096992],[0],['target'],694694,001,2023-09-28_14h56.00.321,visualsearch,2023.1.3,59.968756277437926,
21,0,21,0,10,59.946063299896196,59.946063299896196,0.023817099980078638,[0.362962962962963],[-0.1638888888888889],[1],[0],[0],[1.4067958999658003],[0],['target'],694694,001,2023-09-28_14h56.00.321,visualsearch,2023.1.3,59.968756277437926,
22,0,22,0,10,61.37957409990486,61.37957409990486,0.023822100018151104,[-0.4546296296296296],[-0.30185185185185187],[1],[0],[0],[1.9737261000555009],[0],['target'],694694,001,2023-09-28_14h56.00.321,visualsearch,2023.1.3,59.968756277437926,
23,0,23,0,5,63.3644089999143,63.3644089999143,0.01120840001385659,[0.19074074074074074],[-0.03148148148148148],[1],[0],[0],[2.0530638000927866],[0],['target'],694694,001,2023-09-28_14h56.00.321,visualsearch,2023.1.3,59.968756277437926,
24,0,24,0,10,65.44767969998065,65.44767969998065,0.023564099916256964,[-0.43796296296296294],[0.17685185185185184],[1],[0],[0],[2.2575392000144348],[0],['target'],694694,001,2023-09-28_14h56.00.321,visualsearch,2023.1.3,59.968756277437926,
25,0,25,0,10,67.73463229998015,67.73463229998015,0.024789199931547046,[-0.2324074074074074],[0.03425925925925926],[1],[0],[0],[1.6546657999278978],[0],['target'],694694,001,2023-09-28_14h56.00.321,visualsearch,2023.1.3,59.968756277437926,
26,0,26,0,5,69.400347399991,69.400347399991,0.012362900073640049,[0.025925925925925925],[0.2712962962962963],[1],[0],[0],[1.5514002999989316],[0],['target'],694694,001,2023-09-28_14h56.00.321,visualsearch,2023.1.3,59.968756277437926,
27,0,27,0,10,70.98314599995501,70.98314599995501,0.023379100020974874,[0.3972222222222222],[0.22870370370370371],[1],[0],[0],[1.5065775000257418],[0],['target'],694694,001,2023-09-28_14h56.00.321,visualsearch,2023.1.3,59.968756277437926,
28,0,28,0,10,72.51696529996116,72.51696529996116,0.02306989999487996,[0.23703703703703705],[-0.1814814814814815],[1],[0],[0],[1.5741041000001132],[0],['target'],694694,001,2023-09-28_14h56.00.321,visualsearch,2023.1.3,59.968756277437926,
29,0,29,0,5,74.1010743000079,74.1010743000079,0.01199039991479367,[-0.026851851851851852],[-0.18703703703703703],[1],[0],[0],[1.7520415999460965],[0],['target'],694694,001,2023-09-28_14h56.00.321,visualsearch,2023.1.3,59.968756277437926,
30,0,30,0,10,75.88472339999862,75.88472339999862,0.02341530006378889,[0.3388888888888889],[0.39444444444444443],[1],[0],[0],[2.7904327999567613],[0],['target'],694694,001,2023-09-28_14h56.00.321,visualsearch,2023.1.3,59.968756277437926,
31,0,31,0,10,78.70205369999167,78.70205369999167,0.023918700055219233,[0.3490740740740741],[0.032407407407407406],[1],[0],[0],[1.590008500032127],[0],['target'],694694,001,2023-09-28_14h56.00.321,visualsearch,2023.1.3,59.968756277437926,
32,0,32,0,5,80.30422159994487,80.30422159994487,0.011981999967247248,[0.0787037037037037],[-0.14166666666666666],[1],[0],[0],[1.8856090999906883],[0],['target'],694694,001,2023-09-28_14h56.00.321,visualsearch,2023.1.3,59.968756277437926,
33,0,33,0,10,82.22127259999979,82.22127259999979,0.02308489999268204,[-0.29259259259259257],[-0.27685185185185185],[1],[0],[0],[3.5740965999430045],[0],['target'],694694,001,2023-09-28_14h56.00.321,visualsearch,2023.1.3,59.968756277437926,
34,0,34,0,5,85.80405509995762,85.80405509995762,0.011745199910365045,[-0.09537037037037037],[0.0],[1],[0],[0],[2.1189580999780446],[0],['target'],694694,001,2023-09-28_14h56.00.321,visualsearch,2023.1.3,59.968756277437926,
35,0,35,0,5,87.94000609999057,87.94000609999057,0.012417299905791879,[0.1787037037037037],[0.2462962962962963],[1],[0],[0],[3.1512097999220714],[0],['target'],694694,001,2023-09-28_14h56.00.321,visualsearch,2023.1.3,59.968756277437926,
36,0,36,0,10,91.12390669994056,91.12390669994056,0.024201299995183945,[0.046296296296296294],[-0.23703703703703705],[1],[0],[0],[2.455881599918939],[0],['target'],694694,001,2023-09-28_14h56.00.321,visualsearch,2023.1.3,59.968756277437926,
37,0,37,0,10,93.60695649997797,93.60695649997797,0.02387470006942749,[-0.14814814814814814],[-0.47685185185185186],[1],[0],[0],[3.1571301000658423],[0],['target'],694694,001,2023-09-28_14h56.00.321,visualsearch,2023.1.3,59.968756277437926,
38,0,38,0,10,96.78940459992737,96.78940459992737,0.023374799988232553,[-0.37962962962962965],[-0.021296296296296296],[1],[0],[0],[1.6582557000219822],[0],['target'],694694,001,2023-09-28_14h56.00.321,visualsearch,2023.1.3,59.968756277437926,
39,0,39,0,5,98.46539209992625,98.46539209992625,0.015453599975444376,[0.44074074074074077],[-0.18703703703703703],[1],[0],[0],[1.7133923000656068],[0],['target'],694694,001,2023-09-28_14h56.00.321,visualsearch,2023.1.3,59.968756277437926,
40,0,40,0,5,100.27968659996986,100.27968659996986,0.09407869994174689,[-0.11851851851851852],[-0.0962962962962963],[1],[0],[0],[2.350414599990472],[0],['target'],694694,001,2023-09-28_14h56.00.321,visualsearch,2023.1.3,59.968756277437926,
41,0,41,0,10,102.69682829990052,102.69682829990052,0.04883759992662817,[0.020370370370370372],[-0.12129629629629629],[1],[0],[0],[2.6770196000579745],[0],['target'],694694,001,2023-09-28_14h56.00.321,visualsearch,2023.1.3,59.968756277437926,
42,0,42,0,10,105.42325919994619,105.42325919994619,0.04367750009987503,[-0.25833333333333336],[-0.13333333333333333],[1],[0],[0],[2.1181166999740526],[0],['target'],694694,001,2023-09-28_14h56.00.321,visualsearch,2023.1.3,59.968756277437926,
43,0,43,0,5,107.54715689993463,107.54715689993463,0.013231099932454526,[0.10648148148148148],[0.08611111111111111],[1],[0],[0],[1.5980659999186173],[0],['target'],694694,001,2023-09-28_14h56.00.321,visualsearch,2023.1.3,59.968756277437926,
44,0,44,0,10,109.1755775999045,109.1755775999045,0.023165700025856495,[0.09259259259259259],[-0.4083333333333333],[1],[0],[0],[2.2739787000464275],[0],['target'],694694,001,2023-09-28_14h56.00.321,visualsearch,2023.1.3,59.968756277437926,
45,0,45,0,5,111.46110559999943,111.46110559999943,0.011283600004389882,[-0.0787037037037037],[-0.42777777777777776],[1],[0],[0],[1.9198250999907032],[0],['target'],694694,001,2023-09-28_14h56.00.321,visualsearch,2023.1.3,59.968756277437926,
46,0,46,0,10,113.41329699999187,113.41329699999187,0.025976000004447997,[-0.48055555555555557],[-0.18981481481481483],[1],[0],[0],[1.653669200022705],[0],['target'],694694,001,2023-09-28_14h56.00.321,visualsearch,2023.1.3,59.968756277437926,
47,0,47,0,10,115.09524549997877,115.09524549997877,0.024244499974884093,[-0.18611111111111112],[0.4351851851851852],[1],[0],[0],[2.4408570000668988],[0],['target'],694694,001,2023-09-28_14h56.00.321,visualsearch,2023.1.3,59.968756277437926,
48,0,48,0,5,117.55095359997358,117.55095359997358,0.01438790000975132,[-0.2324074074074074],[-0.44351851851851853],[1],[0],[0],[3.348937200033106],[0],['target'],694694,001,2023-09-28_14h56.00.321,visualsearch,2023.1.3,59.968756277437926,
49,0,49,0,5,120.91649479989428,120.91649479989428,0.012382300104945898,[0.21574074074074073],[-0.16111111111111112],[1],[0],[0],[1.9674584999447688],[0],['target'],694694,001,2023-09-28_14h56.00.321,visualsearch,2023.1.3,59.968756277437926,
50,0,50,0,5,122.89924529998098,122.89924529998098,0.012514500063844025,[-0.3731481481481482],[-0.32685185185185184],[1],[0],[0],[3.234260500059463],[0],['target'],694694,001,2023-09-28_14h56.00.321,visualsearch,2023.1.3,59.968756277437926,
51,0,51,0,10,126.16518189990893,126.16518189990893,0.022741399938240647,[-0.37222222222222223],[-0.3712962962962963],[1],[0],[0],[2.924016200006008],[0],['target'],694694,001,2023-09-28_14h56.00.321,visualsearch,2023.1.3,59.968756277437926,
52,0,52,0,5,129.1003544999985,129.1003544999985,0.01116400002501905,[-0.04351851851851852],[-0.3398148148148148],[1],[0],[0],[1.7197190000442788],[0],['target'],694694,001,2023-09-28_14h56.00.321,visualsearch,2023.1.3,59.968756277437926,
53,0,53,0,5,130.84095359989442,130.84095359989442,0.017102499958127737,[0.07037037037037037],[0.021296296296296296],[1],[0],[0],[1.5274460000218824],[0],['target'],694694,001,2023-09-28_14h56.00.321,visualsearch,2023.1.3,59.968756277437926,
54,0,54,0,10,132.40387009992264,132.40387009992264,0.023999799974262714,[0.45],[-0.2601851851851852],[1],[0],[0],[2.2728179999394342],[0],['target'],694694,001,2023-09-28_14h56.00.321,visualsearch,2023.1.3,59.968756277437926,
55,0,55,0,5,134.6837755999295,134.6837755999295,0.011283100000582635,[0.37592592592592594],[-0.4666666666666667],[1],[0],[0],[2.4698567999294028],[0],['target'],694694,001,2023-09-28_14h56.00.321,visualsearch,2023.1.3,59.968756277437926,
56,0,56,0,5,137.170118699898,137.170118699898,0.01204990001861006,[-0.48333333333333334],[0.4351851851851852],[1],[0],[0],[2.518001899938099],[0],['target'],694694,001,2023-09-28_14h56.00.321,visualsearch,2023.1.3,59.968756277437926,
57,0,57,0,10,139.72292199998628,139.72292199998628,0.027487199986353517,[0.30833333333333335],[-0.07314814814814814],[1],[0],[0],[2.0522561999969184],[0],['target'],694694,001,2023-09-28_14h56.00.321,visualsearch,2023.1.3,59.968756277437926,
58,0,58,0,5,141.78536799992435,141.78536799992435,0.011062500067055225,[-0.2537037037037037],[0.3490740740740741],[1],[0],[0],[1.6365361999487504],[0],['target'],694694,001,2023-09-28_14h56.00.321,visualsearch,2023.1.3,59.968756277437926,
59,0,59,0,10,143.464128099964,143.464128099964,0.033155999961309135,[0.13796296296296295],[0.1175925925925926],[1],[0],[0],[1.5793354999041185],[0],['target'],694694,001,2023-09-28_14h56.00.321,visualsearch,2023.1.3,59.968756277437926,
60,0,60,0,10,145.0704544999171,145.0704544999171,0.024168999982066453,[-0.07222222222222222],[-0.4444444444444444],[1],[0],[0],[1.8730120999971405],[0],['target'],694694,001,2023-09-28_14h56.00.321,visualsearch,2023.1.3,59.968756277437926,
61,0,61,0,10,146.96980939991772,146.96980939991772,0.02361120004206896,[0.1712962962962963],[0.2777777777777778],[1],[0],[0],[1.8236033999128267],[0],['target'],694694,001,2023-09-28_14h56.00.321,visualsearch,2023.1.3,59.968756277437926,
62,0,62,0,10,148.82060439989436,148.82060439989436,0.023432699963450432,[0.3296296296296296],[-0.06111111111111111],[1],[0],[0],[2.4244363999459893],[0],['target'],694694,001,2023-09-28_14h56.00.321,visualsearch,2023.1.3,59.968756277437926,
63,0,63,0,10,151.27046709996648,151.27046709996648,0.022977699991315603,[0.4842592592592593],[0.4351851851851852],[1],[0],[0],[2.0912793000461534],[0],['target'],694694,001,2023-09-28_14h56.00.321,visualsearch,2023.1.3,59.968756277437926,
64,0,64,0,5,153.37311399995815,153.37311399995815,0.011837600031867623,[-0.4027777777777778],[0.31666666666666665],[1],[0],[0],[1.8353684999747202],[0],['target'],694694,001,2023-09-28_14h56.00.321,visualsearch,2023.1.3,59.968756277437926,
65,0,65,0,5,155.22514999995474,155.22514999995474,0.0124795000301674,[0.14166666666666666],[0.32314814814814813],[1],[0],[0],[1.617023600032553],[0],['target'],694694,001,2023-09-28_14h56.00.321,visualsearch,2023.1.3,59.968756277437926,
66,0,66,0,10,156.87549849995412,156.87549849995412,0.024279800010845065,[-0.24166666666666667],[0.41388888888888886],[1],[0],[0],[2.556151599972509],[0],['target'],694694,001,2023-09-28_14h56.00.321,visualsearch,2023.1.3,59.968756277437926,
67,0,67,0,5,159.44157419994008,159.44157419994008,0.011934999958612025,[0.4537037037037037],[0.11203703703703703],[1],[0],[0],[1.7024437999352813],[0],['target'],694694,001,2023-09-28_14h56.00.321,visualsearch,2023.1.3,59.968756277437926,
68,0,68,0,5,161.16263669996988,161.16263669996988,0.012715899967588484,[-0.412962962962963],[-0.37592592592592594],[1],[0],[0],[1.88201649999246],[0],['target'],694694,001,2023-09-28_14h56.00.321,visualsearch,2023.1.3,59.968756277437926,
69,0,69,0,10,163.07686879998073,163.07686879998073,0.02394250000361353,[-0.4148148148148148],[-0.3472222222222222],[1],[0],[0],[1.389538299990818],[0],['target'],694694,001,2023-09-28_14h56.00.321,visualsearch,2023.1.3,59.968756277437926,
70,0,70,0,5,164.47527259995695,164.47527259995695,0.011135500040836632,[-0.1398148148148148],[0.21481481481481482],[1],[0],[0],[2.386543700005859],[0],['target'],694694,001,2023-09-28_14h56.00.321,visualsearch,2023.1.3,59.968756277437926,
71,0,71,0,5,166.87849789997563,166.87849789997563,0.0123668999876827,[-0.28703703703703703],[0.4583333333333333],[1],[0],[0],[2.0171735000330955],[0],['target'],694694,001,2023-09-28_14h56.00.321,visualsearch,2023.1.3,59.968756277437926,
72,0,72,0,5,168.91760249994695,168.91760249994695,0.015888100024312735,[0.36944444444444446],[-0.3768518518518518],[1],[0],[0],[1.7811660000588745],[0],['target'],694694,001,2023-09-28_14h56.00.321,visualsearch,2023.1.3,59.968756277437926,
73,0,73,0,10,170.72967199992854,170.72967199992854,0.02545409998856485,[0.2851851851851852],[0.2037037037037037],[1],[0],[0],[1.6874270000262186],[0],['target'],694694,001,2023-09-28_14h56.00.321,visualsearch,2023.1.3,59.968756277437926,
74,0,74,0,5,172.4285430999007,172.4285430999007,0.011142699979245663,[0.05277777777777778],[-0.06944444444444445],[1],[0],[0],[1.5365488999523222],[0],['target'],694694,001,2023-09-28_14h56.00.321,visualsearch,2023.1.3,59.968756277437926,
75,0,75,0,10,173.99612879997585,173.99612879997585,0.022264799918048084,[-0.1814814814814815],[0.4398148148148148],[1],[0],[0],[1.790928400005214],[0],['target'],694694,001,2023-09-28_14h56.00.321,visualsearch,2023.1.3,59.968756277437926,
76,0,76,0,10,175.81272239994723,175.81272239994723,0.022811500006355345,[-0.32685185185185184],[-0.3787037037037037],[1],[0],[0],[1.8416239999933168],[0],['target'],694694,001,2023-09-28_14h56.00.321,visualsearch,2023.1.3,59.968756277437926,
77,0,77,0,10,177.67880170000717,177.67880170000717,0.023350500036031008,[0.41203703703703703],[-0.47129629629629627],[1],[0],[0],[2.290362700005062],[0],['target'],694694,001,2023-09-28_14h56.00.321,visualsearch,2023.1.3,59.968756277437926,
78,0,78,0,5,179.97916160000023,179.97916160000023,0.01127639994956553,[-0.43148148148148147],[0.08425925925925926],[1],[0],[0],[1.8032362000085413],[0],['target'],694694,001,2023-09-28_14h56.00.321,visualsearch,2023.1.3,59.968756277437926,
79,0,79,0,5,181.80255389993545,181.80255389993545,0.013733599917031825,[-0.3398148148148148],[-0.28703703703703703],[1],[0],[0],[2.230511499918066],[0],['target'],694694,001,2023-09-28_14h56.00.321,visualsearch,2023.1.3,59.968756277437926,
80,0,80,0,10,184.06989089993294,184.06989089993294,0.026707099983468652,[-0.09907407407407408],[0.09444444444444444],[1],[0],[0],[2.386629000073299],[0],['target'],694694,001,2023-09-28_14h56.00.321,visualsearch,2023.1.3,59.968756277437926,
81,0,81,0,5,186.4668707998935,186.4668707998935,0.01203199999872595,[-0.49537037037037035],[-0.1175925925925926],[1],[0],[0],[1.9841264999704435],[0],['target'],694694,001,2023-09-28_14h56.00.321,visualsearch,2023.1.3,59.968756277437926,
82,0,82,0,10,188.48320339992642,188.48320339992642,0.023854900035075843,[-0.41759259259259257],[-0.1925925925925926],[1],[0],[0],[1.5224224999547005],[0],['target'],694694,001,2023-09-28_14h56.00.321,visualsearch,2023.1.3,59.968756277437926,
83,0,83,0,5,190.0167951999465,190.0167951999465,0.011700600036419928,[0.475],[-0.19722222222222222],[1],[0],[0],[2.1028631000081077],[0],['target'],694694,001,2023-09-28_14h56.00.321,visualsearch,2023.1.3,59.968756277437926,
84,0,84,0,5,192.1347187999636,192.1347187999636,0.01297719997819513,[0.06944444444444445],[0.46944444444444444],[1],[0],[0],[3.217379599926062],[0],['target'],694694,001,2023-09-28_14h56.00.321,visualsearch,2023.1.3,59.968756277437926,
85,0,85,0,10,195.3839200999355,195.3839200999355,0.023726999992504716,[-0.14537037037037037],[0.23796296296296296],[1],[0],[0],[2.889753600000404],[0],['target'],694694,001,2023-09-28_14h56.00.321,visualsearch,2023.1.3,59.968756277437926,
86,0,86,0,10,198.30119539995212,198.30119539995212,0.02263310004491359,[0.3194444444444444],[-0.22592592592592592],[1],[0],[0],[4.308976500062272],[0],['target'],694694,001,2023-09-28_14h56.00.321,visualsearch,2023.1.3,59.968756277437926,
87,0,87,0,5,202.631202199962,202.631202199962,0.017874500015750527,[0.17407407407407408],[-0.01574074074074074],[1],[0],[0],[2.0943185000214726],[0],['target'],694694,001,2023-09-28_14h56.00.321,visualsearch,2023.1.3,59.968756277437926,
88,0,88,0,5,204.75742349994835,204.75742349994835,0.021742300014011562,[0.15],[-0.42592592592592593],[1],[0],[0],[2.1713407000061125],[0],['target'],694694,001,2023-09-28_14h56.00.321,visualsearch,2023.1.3,59.968756277437926,
89,0,89,0,10,206.99128640000708,206.99128640000708,0.0494015000294894,[0.032407407407407406],[0.3814814814814815],[1],[0],[0],[3.9281331000383943],[0],['target'],694694,001,2023-09-28_14h56.00.321,visualsearch,2023.1.3,59.968756277437926,
90,0,90,0,10,210.9688089999836,210.9688089999836,0.044004500028677285,[0.3962962962962963],[0.2712962962962963],[1],[0],[0],[1.9341128999367356],[0],['target'],694694,001,2023-09-28_14h56.00.321,visualsearch,2023.1.3,59.968756277437926,
91,0,91,0,5,212.9052274998976,212.9052274998976,0.011426600045524538,[-0.38425925925925924],[-0.44537037037037036],[1],[0],[0],[2.652988100075163],[0],['target'],694694,001,2023-09-28_14h56.00.321,visualsearch,2023.1.3,59.968756277437926,
92,0,92,0,5,215.57484759995714,215.57484759995714,0.012591099948622286,[0.37592592592592594],[-0.21296296296296297],[1],[0],[0],[2.550124599947594],[0],['target'],694694,001,2023-09-28_14h56.00.321,visualsearch,2023.1.3,59.968756277437926,
93,0,93,0,10,218.15789539995603,218.15789539995603,0.023740499978885055,[-0.000925925925925926],[0.12407407407407407],[1],[0],[0],[3.107269800035283],[0],['target'],694694,001,2023-09-28_14h56.00.321,visualsearch,2023.1.3,59.968756277437926,
94,0,94,0,10,221.2969080999028,221.2969080999028,0.024973199935629964,[-0.37592592592592594],[-0.013888888888888888],[1],[0],[0],[1.903286200016737],[0],['target'],694694,001,2023-09-28_14h56.00.321,visualsearch,2023.1.3,59.968756277437926,
95,0,95,0,5,223.21079449995887,223.21079449995887,0.01259519997984171,[-0.4583333333333333],[0.48148148148148145],[1],[0],[0],[4.0681779000442475],[0],['target'],694694,001,2023-09-28_14h56.00.321,visualsearch,2023.1.3,59.968756277437926,
96,0,96,0,10,227.31048699992243,227.31048699992243,0.023152499925345182,[0.2796296296296296],[-0.22592592592592592],[1],[0],[0],[2.7399281999096274],[0],['target'],694694,001,2023-09-28_14h56.00.321,visualsearch,2023.1.3,59.968756277437926,
97,0,97,0,10,230.0771415999625,230.0771415999625,0.022998400032520294,[-0.3861111111111111],[0.030555555555555555],[1],[0],[0],[3.141418799990788],[0],['target'],694694,001,2023-09-28_14h56.00.321,visualsearch,2023.1.3,59.968756277437926,
98,0,98,0,10,233.24359319999348,233.24359319999348,0.023181800032034516,[-0.03796296296296296],[-0.2537037037037037],[1],[0],[0],[2.190605500014499],[0],['target'],694694,001,2023-09-28_14h56.00.321,visualsearch,2023.1.3,59.968756277437926,
99,0,99,0,5,235.44592209998518,235.44592209998518,0.011450299993157387,[0.39166666666666666],[-0.10555555555555556],[1],[0],[0],[1.919695100048557],[0],['target'],694694,001,2023-09-28_14h56.00.321,visualsearch,2023.1.3,59.968756277437926,
100,0,100,0,10,237.39633839996532,237.39633839996532,0.023977600038051605,[-0.1398148148148148],[0.29814814814814816],[1],[0],[0],[2.022404699935578],[0],['target'],694694,001,2023-09-28_14h56.00.321,visualsearch,2023.1.3,59.968756277437926,
101,0,101,0,10,239.44459389999975,239.44459389999975,0.02266290003899485,[-0.44722222222222224],[-0.43333333333333335],[1],[0],[0],[2.5250085999723524],[0],['target'],694694,001,2023-09-28_14h56.00.321,visualsearch,2023.1.3,59.968756277437926,
102,0,102,0,10,241.9963650999125,241.9963650999125,0.023622200009413064,[-0.2537037037037037],[-0.14351851851851852],[1],[0],[0],[1.807942199986428],[0],['target'],694694,001,2023-09-28_14h56.00.321,visualsearch,2023.1.3,59.968756277437926,
103,0,103,0,10,243.85676239989698,243.85676239989698,0.04694949998520315,[0.4148148148148148],[0.0824074074074074],[1],[0],[0],[2.6651437000837177],[0],['target'],694694,001,2023-09-28_14h56.00.321,visualsearch,2023.1.3,59.968756277437926,
104,0,104,0,10,246.54587379994337,246.54587379994337,0.02322259999345988,[-0.14814814814814814],[0.1935185185185185],[1],[0],[0],[4.591511399950832],[0],['target'],694694,001,2023-09-28_14h56.00.321,visualsearch,2023.1.3,59.968756277437926,
105,0,105,0,5,251.14820709999185,251.14820709999185,0.011168700060807168,[-0.2638888888888889],[0.28703703703703703],[1],[0],[0],[2.2029790999367833],[0],['target'],694694,001,2023-09-28_14h56.00.321,visualsearch,2023.1.3,59.968756277437926,
106,0,106,0,5,253.3675602999283,253.3675602999283,0.012140000006183982,[-0.07222222222222222],[0.06666666666666667],[1],[0],[0],[5.035379400011152],[0],['target'],694694,001,2023-09-28_14h56.00.321,visualsearch,2023.1.3,59.968756277437926,
107,0,107,0,5,258.41865839995444,258.41865839995444,0.01246190001256764,[-0.3574074074074074],[-0.15462962962962962],[1],[0],[0],[1.7339871000731364],[0],['target'],694694,001,2023-09-28_14h56.00.321,visualsearch,2023.1.3,59.968756277437926,
108,0,108,0,5,260.1691244998947,260.1691244998947,0.012234700028784573,[0.225],[0.2074074074074074],[1],[0],[0],[1.4510901999892667],[0],['target'],694694,001,2023-09-28_14h56.00.321,visualsearch,2023.1.3,59.968756277437926,
109,0,109,0,5,261.6382505999645,261.6382505999645,0.012880399939604104,[-0.37222222222222223],[-0.1648148148148148],[1],[0],[0],[1.8504003999987617],[0],['target'],694694,001,2023-09-28_14h56.00.321,visualsearch,2023.1.3,59.968756277437926,
110,0,110,0,5,263.50734869996086,263.50734869996086,0.014452800038270652,[0.1527777777777778],[0.36944444444444446],[1],[0],[0],[1.796763600083068],[0],['target'],694694,001,2023-09-28_14h56.00.321,visualsearch,2023.1.3,59.968756277437926,
111,0,111,0,10,265.3366399999941,265.3366399999941,0.024473599973134696,[0.1527777777777778],[0.36944444444444446],[1],[0],[0],[0.23818980006035417],[],[],694694,001,2023-09-28_14h56.00.321,visualsearch,2023.1.3,59.968756277437926,
112,0,112,0,5,265.58909899997525,265.58909899997525,0.012653699959628284,[-0.07314814814814814],[0.10185185185185185],[1],[0],[0],[1.8167353000026196],[0],['target'],694694,001,2023-09-28_14h56.00.321,visualsearch,2023.1.3,59.968756277437926,
113,0,113,0,10,267.4374189999653,267.4374189999653,0.024029799969866872,[0.45740740740740743],[0.08888888888888889],[1],[0],[0],[2.3727614999515936],[0],['target'],694694,001,2023-09-28_14h56.00.321,visualsearch,2023.1.3,59.968756277437926,
114,0,114,0,5,269.8211086000083,269.8211086000083,0.011343799997121096,[0.07592592592592592],[-0.08518518518518518],[1],[0],[0],[2.036304800072685],[0],['target'],694694,001,2023-09-28_14h56.00.321,visualsearch,2023.1.3,59.968756277437926,
115,0,115,0,10,271.8885201999219,271.8885201999219,0.02298079989850521,[0.18611111111111112],[0.1111111111111111],[1],[0],[0],[2.1068719999166206],[0],['target'],694694,001,2023-09-28_14h56.00.321,visualsearch,2023.1.3,59.968756277437926,
116,0,116,0,5,274.0055972998962,274.0055972998962,0.011419899994507432,[0.21666666666666667],[-0.3824074074074074],[1],[0],[0],[1.6197072999784723],[0],['target'],694694,001,2023-09-28_14h56.00.321,visualsearch,2023.1.3,59.968756277437926,
117,0,117,0,10,275.6578532999847,275.6578532999847,0.024896500050090253,[-0.2611111111111111],[-0.41944444444444445],[1],[0],[0],[2.055194200016558],[0],['target'],694694,001,2023-09-28_14h56.00.321,visualsearch,2023.1.3,59.968756277437926,
118,0,118,0,5,277.72471839992795,277.72471839992795,0.012024500058032572,[0.47685185185185186],[-0.18796296296296297],[1],[0],[0],[2.1354830999625847],[0],['target'],694694,001,2023-09-28_14h56.00.321,visualsearch,2023.1.3,59.968756277437926,
119,0,119,0,5,279.8747272999026,279.8747272999026,0.012131300056353211,[0.24259259259259258],[0.48055555555555557],[1],[0],[0],[2.2182609000010416],[0],['target'],694694,001,2023-09-28_14h56.00.321,visualsearch,2023.1.3,59.968756277437926,
120,0,120,0,10,282.12215049995575,282.12215049995575,0.023404399980790913,[-0.1398148148148148],[0.46296296296296297],[1],[0],[0],[2.0407906000036746],[0],['target'],694694,001,2023-09-28_14h56.00.321,visualsearch,2023.1.3,59.968756277437926,
121,0,121,0,5,284.178052800009,284.178052800009,0.01472269999794662,[-0.32222222222222224],[0.33240740740740743],[1],[0],[0],[1.5994545000139624],[0],['target'],694694,001,2023-09-28_14h56.00.321,visualsearch,2023.1.3,59.968756277437926,
122,0,122,0,5,285.79305789992213,285.79305789992213,0.012603400042280555,[-0.018518518518518517],[0.4046296296296296],[1],[0],[0],[1.8343884000787511],[0],['target'],694694,001,2023-09-28_14h56.00.321,visualsearch,2023.1.3,59.968756277437926,
123,0,123,0,10,287.6866929999087,287.6866929999087,0.040885500027798116,[-0.05555555555555555],[-0.23333333333333334],[1],[0],[0],[2.420001900056377],[0],['target'],694694,001,2023-09-28_14h56.00.321,visualsearch,2023.1.3,59.968756277437926,
124,0,124,0,5,290.11046719993465,290.11046719993465,0.01132229994982481,[-0.45],[0.33425925925925926],[1],[0],[0],[2.286543200025335],[0],['target'],694694,001,2023-09-28_14h56.00.321,visualsearch,2023.1.3,59.968756277437926,
125,0,125,0,5,292.41212579992134,292.41212579992134,0.012155900010839105,[0.16666666666666666],[-0.008333333333333333],[1],[0],[0],[2.367589700035751],[0],['target'],694694,001,2023-09-28_14h56.00.321,visualsearch,2023.1.3,59.968756277437926,
126,0,126,0,10,294.8128826000029,294.8128826000029,0.023217200068756938,[-0.2722222222222222],[0.33611111111111114],[1],[0],[0],[2.3565235999412835],[0],['target'],694694,001,2023-09-28_14h56.00.321,visualsearch,2023.1.3,59.968756277437926,
127,0,127,0,5,297.1782786999829,297.1782786999829,0.012530999956652522,[-0.21574074074074073],[-0.4203703703703704],[1],[0],[0],[1.9348746000323445],[0],['target'],694694,001,2023-09-28_14h56.00.321,visualsearch,2023.1.3,59.968756277437926,
128,0,128,0,10,299.1479601999745,299.1479601999745,0.024459199979901314,[0.09351851851851851],[0.44907407407407407],[1],[0],[0],[2.5724397000158206],[0],['target'],694694,001,2023-09-28_14h56.00.321,visualsearch,2023.1.3,59.968756277437926,
129,0,129,0,5,301.73395129991695,301.73395129991695,0.01201439998112619,[-0.08611111111111111],[0.05740740740740741],[1],[0],[0],[1.5333557999692857],[0],['target'],694694,001,2023-09-28_14h56.00.321,visualsearch,2023.1.3,59.968756277437926,
130,0,130,0,5,303.28008999989834,303.28008999989834,0.011770599987357855,[0.31574074074074077],[-0.412962962962963],[1],[0],[0],[1.7349906999152154],[0],['target'],694694,001,2023-09-28_14h56.00.321,visualsearch,2023.1.3,59.968756277437926,
131,0,131,0,10,305.04851049999706,305.04851049999706,0.024445700109936297,[0.4666666666666667],[0.15648148148148147],[1],[0],[0],[1.9052879000082612],[0],['target'],694694,001,2023-09-28_14h56.00.321,visualsearch,2023.1.3,59.968756277437926,
132,0,132,0,10,306.98259789997246,306.98259789997246,0.023356399964541197,[-0.019444444444444445],[0.1388888888888889],[1],[0],[0],[2.4745325999101624],[0],['target'],694694,001,2023-09-28_14h56.00.321,visualsearch,2023.1.3,59.968756277437926,
133,0,133,0,5,309.46640269993804,309.46640269993804,0.011577600031159818,[-0.07407407407407407],[0.24444444444444444],[1],[0],[0],[1.802293400047347],[0],['target'],694694,001,2023-09-28_14h56.00.321,visualsearch,2023.1.3,59.968756277437926,
134,0,134,0,5,311.28255099989474,311.28255099989474,0.011161100002937019,[0.24537037037037038],[0.30925925925925923],[1],[0],[0],[1.5530886999331415],[0],['target'],694694,001,2023-09-28_14h56.00.321,visualsearch,2023.1.3,59.968756277437926,
135,0,135,0,10,312.86891849990934,312.86891849990934,0.023329899995587766,[0.47129629629629627],[0.10925925925925926],[1],[0],[0],[2.4553219999652356],[0],['target'],694694,001,2023-09-28_14h56.00.321,visualsearch,2023.1.3,59.968756277437926,
136,0,136,0,5,315.33273609995376,315.33273609995376,0.011334499926306307,[-0.15185185185185185],[0.19166666666666668],[1],[0],[0],[1.8702015000162646],[0],['target'],694694,001,2023-09-28_14h56.00.321,visualsearch,2023.1.3,59.968756277437926,
137,0,137,0,10,317.2410009999294,317.2410009999294,0.02697819995228201,[0.46574074074074073],[-0.44814814814814813],[1],[0],[0],[3.420337099931203],[0],['target'],694694,001,2023-09-28_14h56.00.321,visualsearch,2023.1.3,59.968756277437926,
138,0,138,0,5,320.66826819989365,320.66826819989365,0.0118219000287354,[0.4703703703703704],[-0.12407407407407407],[1],[0],[0],[1.685195899917744],[0],['target'],694694,001,2023-09-28_14h56.00.321,visualsearch,2023.1.3,59.968756277437926,
139,0,139,0,5,322.37085199996363,322.37085199996363,0.012589499936439097,[-0.06018518518518518],[-0.20555555555555555],[1],[0],[0],[1.7836143999593332],[0],['target'],694694,001,2023-09-28_14h56.00.321,visualsearch,2023.1.3,59.968756277437926,
140,0,140,0,5,324.16983009991236,324.16983009991236,0.01233739999588579,[0.3962962962962963],[-0.17592592592592593],[1],[0],[0],[1.9343072000192478],[0],['target'],694694,001,2023-09-28_14h56.00.321,visualsearch,2023.1.3,59.968756277437926,
141,0,141,0,10,326.13680709991604,326.13680709991604,0.02425070002209395,[0.049074074074074076],[-0.4],[1],[0],[0],[2.205950500094332],[0],['target'],694694,001,2023-09-28_14h56.00.321,visualsearch,2023.1.3,59.968756277437926,
142,0,142,0,10,328.3678133999929,328.3678133999929,0.022653299965895712,[0.39166666666666666],[-0.09722222222222222],[1],[0],[0],[1.3915770999155939],[0],['target'],694694,001,2023-09-28_14h56.00.321,visualsearch,2023.1.3,59.968756277437926,
143,0,143,0,10,329.78609109995887,329.78609109995887,0.022712300065904856,[-0.11296296296296296],[-0.3611111111111111],[1],[0],[0],[1.8415557000553235],[0],['target'],694694,001,2023-09-28_14h56.00.321,visualsearch,2023.1.3,59.968756277437926,
144,0,144,0,10,331.6567903999239,331.6567903999239,0.026671800063923,[0.24722222222222223],[0.15833333333333333],[1],[0],[0],[1.7374503000173718],[0],['target'],694694,001,2023-09-28_14h56.00.321,visualsearch,2023.1.3,59.968756277437926,
145,0,145,0,10,333.42157339991536,333.42157339991536,0.02303869999013841,[0.2518518518518518],[-0.14814814814814814],[1],[0],[0],[1.5412094000494108],[0],['target'],694694,001,2023-09-28_14h56.00.321,visualsearch,2023.1.3,59.968756277437926,
146,0,146,0,10,334.98511949996464,334.98511949996464,0.021694399998523295,[-0.29074074074074074],[0.017592592592592594],[1],[0],[0],[1.9253423999762163],[0],['target'],694694,001,2023-09-28_14h56.00.321,visualsearch,2023.1.3,59.968756277437926,
147,0,147,0,10,336.9656796999043,336.9656796999043,0.03743449994362891,[-0.10648148148148148],[0.058333333333333334],[1],[0],[0],[1.9250884000211954],[0],['target'],694694,001,2023-09-28_14h56.00.321,visualsearch,2023.1.3,59.968756277437926,
148,0,148,0,5,338.8970050999196,338.8970050999196,0.015877799945883453,[-0.025],[0.3453703703703704],[1],[0],[0],[2.063615799997933],[0],['target'],694694,001,2023-09-28_14h56.00.321,visualsearch,2023.1.3,59.968756277437926,
149,0,149,0,10,341.02365959994495,341.02365959994495,0.04534950002562255,[0.13703703703703704],[0.4583333333333333],[1],[0],[0],[3.265365200000815],[0],['target'],694694,001,2023-09-28_14h56.00.321,visualsearch,2023.1.3,59.968756277437926,
150,0,150,0,10,344.3290777999209,344.3290777999209,0.03328610002063215,[0.23055555555555557],[-0.4462962962962963],[1],[0],[0],[2.6134173999307677],[0],['target'],694694,001,2023-09-28_14h56.00.321,visualsearch,2023.1.3,59.968756277437926,
151,0,151,0,5,346.9596438999288,346.9596438999288,0.021233199979178607,[-0.2324074074074074],[0.2861111111111111],[1],[0],[0],[2.489956700010225],[0],['target'],694694,001,2023-09-28_14h56.00.321,visualsearch,2023.1.3,59.968756277437926,
152,0,152,0,5,349.4692624999443,349.4692624999443,0.01837339997291565,[-0.337037037037037],[0.46944444444444444],[1],[0],[0],[2.0758055000333115],[0],['target'],694694,001,2023-09-28_14h56.00.321,visualsearch,2023.1.3,59.968756277437926,
153,0,153,0,10,351.61210469994694,351.61210469994694,0.04821289994288236,[0.14351851851851852],[-0.12407407407407407],[1],[0],[0],[3.5272125999908894],[0],['target'],694694,001,2023-09-28_14h56.00.321,visualsearch,2023.1.3,59.968756277437926,
154,0,154,0,5,355.16401839989703,355.16401839989703,0.02354139997623861,[-0.19166666666666668],[0.06018518518518518],[1],[0],[0],[1.8873374999966472],[0],['target'],694694,001,2023-09-28_14h56.00.321,visualsearch,2023.1.3,59.968756277437926,
155,0,155,0,5,357.07757329999004,357.07757329999004,0.019452499924227595,[0.4564814814814815],[0.3333333333333333],[1],[0],[0],[1.8747313999338076],[0],['target'],694694,001,2023-09-28_14h56.00.321,visualsearch,2023.1.3,59.968756277437926,
156,0,156,0,5,358.97781589999795,358.97781589999795,0.019395100069232285,[0.22037037037037038],[0.375],[1],[0],[0],[1.608835200080648],[0],['target'],694694,001,2023-09-28_14h56.00.321,visualsearch,2023.1.3,59.968756277437926,
157,0,157,0,5,360.6102003999986,360.6102003999986,0.018596099922433496,[-0.362962962962963],[0.387037037037037],[1],[0],[0],[1.7919372000033036],[0],['target'],694694,001,2023-09-28_14h56.00.321,visualsearch,2023.1.3,59.968756277437926,
158,0,158,0,5,362.43610119994264,362.43610119994264,0.02641980000771582,[0.10833333333333334],[-0.24722222222222223],[1],[0],[0],[1.734541599988006],[0],['target'],694694,001,2023-09-28_14h56.00.321,visualsearch,2023.1.3,59.968756277437926,
159,0,159,0,10,364.23487109993584,364.23487109993584,0.04976820002775639,[0.4083333333333333],[0.2833333333333333],[1],[0],[0],[2.1103512999834493],[0],['target'],694694,001,2023-09-28_14h56.00.321,visualsearch,2023.1.3,59.968756277437926,
160,0,160,0,5,366.35174579999875,366.35174579999875,0.014880100032314658,[0.4925925925925926],[0.012962962962962963],[1],[0],[0],[1.731159400078468],[0],['target'],694694,001,2023-09-28_14h56.00.321,visualsearch,2023.1.3,59.968756277437926,
161,0,161,0,5,368.1127634999575,368.1127634999575,0.019738400005735457,[0.24259259259259258],[0.4898148148148148],[1],[0],[0],[2.208896099939011],[0],['target'],694694,001,2023-09-28_14h56.00.321,visualsearch,2023.1.3,59.968756277437926,
162,0,162,0,5,370.34562799998093,370.34562799998093,0.01904139993712306,[0.14814814814814814],[-0.33240740740740743],[1],[0],[0],[1.7092364999698475],[0],['target'],694694,001,2023-09-28_14h56.00.321,visualsearch,2023.1.3,59.968756277437926,
163,0,163,0,10,372.115348399966,372.115348399966,0.043546600034460425,[0.11481481481481481],[0.31296296296296294],[1],[0],[0],[1.4155886999797076],[0],['target'],694694,001,2023-09-28_14h56.00.321,visualsearch,2023.1.3,59.968756277437926,
164,0,164,0,10,373.57075809990056,373.57075809990056,0.0361820999532938,[0.4842592592592593],[0.3416666666666667],[1],[0],[0],[1.576103200088255],[0],['target'],694694,001,2023-09-28_14h56.00.321,visualsearch,2023.1.3,59.968756277437926,
165,0,165,0,5,375.15358469996136,375.15358469996136,0.013473799917846918,[-0.09537037037037037],[-0.18611111111111112],[1],[0],[0],[1.6832901999587193],[0],['target'],694694,001,2023-09-28_14h56.00.321,visualsearch,2023.1.3,59.968756277437926,
166,0,166,0,5,376.8675056999782,376.8675056999782,0.02007580001372844,[0.027777777777777776],[-0.023148148148148147],[1],[0],[0],[1.390508500044234],[0],['target'],694694,001,2023-09-28_14h56.00.321,visualsearch,2023.1.3,59.968756277437926,
167,0,167,0,5,378.28554449998774,378.28554449998774,0.019743300043046474,[0.34074074074074073],[0.06111111111111111],[1],[0],[0],[1.790859300061129],[0],['target'],694694,001,2023-09-28_14h56.00.321,visualsearch,2023.1.3,59.968756277437926,
168,0,168,0,5,380.1052176000085,380.1052176000085,0.024722600006498396,[-0.23796296296296296],[-0.45],[1],[0],[0],[1.936444399994798],[0],['target'],694694,001,2023-09-28_14h56.00.321,visualsearch,2023.1.3,59.968756277437926,
169,0,169,0,10,382.1042317999527,382.1042317999527,0.048505299957469106,[-0.21944444444444444],[-0.16666666666666666],[1],[0],[0],[1.677682499983348],[0],['target'],694694,001,2023-09-28_14h56.00.321,visualsearch,2023.1.3,59.968756277437926,
170,0,170,0,10,383.81685239996295,383.81685239996295,0.031757300021126866,[-0.48148148148148145],[-0.38425925925925924],[1],[0],[0],[2.714908300084062],[0],['target'],694694,001,2023-09-28_14h56.00.321,visualsearch,2023.1.3,59.968756277437926,
171,0,171,0,5,386.54350569995586,386.54350569995586,0.01620730001013726,[-0.030555555555555555],[-0.04259259259259259],[1],[0],[0],[1.8295509000308812],[0],['target'],694694,001,2023-09-28_14h56.00.321,visualsearch,2023.1.3,59.968756277437926,
172,0,172,0,10,388.4375493999105,388.4375493999105,0.048072799923829734,[-0.23796296296296296],[0.24351851851851852],[1],[0],[0],[1.7950890000211075],[0],['target'],694694,001,2023-09-28_14h56.00.321,visualsearch,2023.1.3,59.968756277437926,
173,0,173,0,10,390.2725435999455,390.2725435999455,0.03464249998796731,[-0.3138888888888889],[0.125],[1],[0],[0],[1.8616450000554323],[0],['target'],694694,001,2023-09-28_14h56.00.321,visualsearch,2023.1.3,59.968756277437926,
174,0,174,0,5,392.14155269996263,392.14155269996263,0.015221399953588843,[0.18425925925925926],[-0.1675925925925926],[1],[0],[0],[2.0475702999392524],[0],['target'],694694,001,2023-09-28_14h56.00.321,visualsearch,2023.1.3,59.968756277437926,
175,0,175,0,5,394.2256449999986,394.2256449999986,0.023776899906806648,[0.18425925925925926],[-0.16296296296296298],[1],[0],[0],[1.936988199944608],[0],['target'],694694,001,2023-09-28_14h56.00.321,visualsearch,2023.1.3,59.968756277437926,
176,0,176,0,10,396.2181942999596,396.2181942999596,0.04278270003851503,[0.1675925925925926],[-0.010185185185185186],[1],[0],[0],[1.8341153000947088],[0],['target'],694694,001,2023-09-28_14h56.00.321,visualsearch,2023.1.3,59.968756277437926,
177,0,177,0,10,398.11199569993187,398.11199569993187,0.052421399974264205,[-0.35833333333333334],[-0.2833333333333333],[1],[0],[0],[1.9415602999506518],[0],['target'],694694,001,2023-09-28_14h56.00.321,visualsearch,2023.1.3,59.968756277437926,
178,0,178,0,5,400.0588813999202,400.0588813999202,0.013555000070482492,[0.2490740740740741],[0.45555555555555555],[1],[0],[0],[2.766743900021538],[0],['target'],694694,001,2023-09-28_14h56.00.321,visualsearch,2023.1.3,59.968756277437926,
179,0,179,0,10,402.8858239999972,402.8858239999972,0.04294409998692572,[-0.23148148148148148],[-0.03981481481481482],[1],[0],[0],[1.901299599907361],[0],['target'],694694,001,2023-09-28_14h56.00.321,visualsearch,2023.1.3,59.968756277437926,
180,0,180,0,5,404.8010932999896,404.8010932999896,0.016784799983724952,[0.11574074074074074],[-0.34444444444444444],[1],[0],[0],[2.4624325999757275],[0],['target'],694694,001,2023-09-28_14h56.00.321,visualsearch,2023.1.3,59.968756277437926,
181,0,181,0,10,407.3204044000013,407.3204044000013,0.0470307000214234,[-0.17685185185185184],[-0.35648148148148145],[1],[0],[0],[1.8295782000059262],[0],['target'],694694,001,2023-09-28_14h56.00.321,visualsearch,2023.1.3,59.968756277437926,
182,0,182,0,10,409.19776199990883,409.19776199990883,0.036170499981381,[0.4638888888888889],[0.2916666666666667],[1],[0],[0],[1.6094347999896854],[0],['target'],694694,001,2023-09-28_14h56.00.321,visualsearch,2023.1.3,59.968756277437926,
183,0,183,0,10,410.84786929993425,410.84786929993425,0.0345741999335587,[-0.16111111111111112],[-0.4675925925925926],[1],[0],[0],[3.678134400048293],[0],['target'],694694,001,2023-09-28_14h56.00.321,visualsearch,2023.1.3,59.968756277437926,
184,0,184,0,5,414.5299920999678,414.5299920999678,0.013216600054875016,[0.07592592592592592],[-0.09166666666666666],[1],[0],[0],[1.5508366000140086],[0],['target'],694694,001,2023-09-28_14h56.00.321,visualsearch,2023.1.3,59.968756277437926,
185,0,185,0,5,416.09480929991696,416.09480929991696,0.012124600005336106,[-0.3537037037037037],[0.4046296296296296],[1],[0],[0],[1.6679682999383658],[0],['target'],694694,001,2023-09-28_14h56.00.321,visualsearch,2023.1.3,59.968756277437926,
186,0,186,0,10,417.7958997999085,417.7958997999085,0.02401090005878359,[0.26851851851851855],[0.4564814814814815],[1],[0],[0],[4.5402675999794155],[0],['target'],694694,001,2023-09-28_14h56.00.321,visualsearch,2023.1.3,59.968756277437926,
187,0,187,0,5,422.3460720999865,422.3460720999865,0.011981299961917102,[-0.030555555555555555],[-0.13796296296296295],[1],[0],[0],[1.9187123998999596],[0],['target'],694694,001,2023-09-28_14h56.00.321,visualsearch,2023.1.3,59.968756277437926,
188,0,188,0,10,424.2951535999309,424.2951535999309,0.02307150000706315,[0.28425925925925927],[0.3768518518518518],[1],[0],[0],[2.873740400071256],[0],['target'],694694,001,2023-09-28_14h56.00.321,visualsearch,2023.1.3,59.968756277437926,
189,0,189,0,5,427.1791394999018,427.1791394999018,0.011097399983555079,[0.2759259259259259],[-0.03518518518518519],[1],[0],[0],[2.0030099999858066],[0],['target'],694694,001,2023-09-28_14h56.00.321,visualsearch,2023.1.3,59.968756277437926,
190,0,190,0,10,429.21406609995756,429.21406609995756,0.023422199999913573,[-0.3175925925925926],[-0.026851851851851852],[1],[0],[0],[1.5557574999984354],[0],['target'],694694,001,2023-09-28_14h56.00.321,visualsearch,2023.1.3,59.968756277437926,
191,0,191,0,10,430.79797369998414,430.79797369998414,0.02386710001155734,[-0.325],[0.33425925925925926],[1],[0],[0],[1.9069902999326587],[0],['target'],694694,001,2023-09-28_14h56.00.321,visualsearch,2023.1.3,59.968756277437926,
192,0,192,0,5,432.71651389996987,432.71651389996987,0.012856999994255602,[-0.14629629629629629],[-0.30925925925925923],[1],[0],[0],[1.651698200032115],[0],['target'],694694,001,2023-09-28_14h56.00.321,visualsearch,2023.1.3,59.968756277437926,
193,0,193,0,5,434.3838149999501,434.3838149999501,0.01234030001796782,[-0.21851851851851853],[-0.22314814814814815],[1],[0],[0],[1.284196799970232],[0],['target'],694694,001,2023-09-28_14h56.00.321,visualsearch,2023.1.3,59.968756277437926,
194,0,194,0,10,435.70050659996923,435.70050659996923,0.024740499909967184,[0.2777777777777778],[-0.2796296296296296],[1],[0],[0],[1.805180500028655],[0],['target'],694694,001,2023-09-28_14h56.00.321,visualsearch,2023.1.3,59.968756277437926,
195,0,195,0,10,437.5338941999944,437.5338941999944,0.02377369999885559,[0.3194444444444444],[0.2935185185185185],[1],[0],[0],[1.540153499925509],[0],['target'],694694,001,2023-09-28_14h56.00.321,visualsearch,2023.1.3,59.968756277437926,
196,0,196,0,5,439.0853058999637,439.0853058999637,0.012155600008554757,[0.26296296296296295],[-0.36018518518518516],[1],[0],[0],[1.6852354999864474],[0],['target'],694694,001,2023-09-28_14h56.00.321,visualsearch,2023.1.3,59.968756277437926,
197,0,197,0,10,440.8018812999362,440.8018812999362,0.023817299981601536,[0.2574074074074074],[-0.19444444444444445],[1],[0],[0],[1.9226079999934882],[0],['target'],694694,001,2023-09-28_14h56.00.321,visualsearch,2023.1.3,59.968756277437926,
198,0,198,0,5,442.733196199988,442.733196199988,0.011150500038638711,[-0.09351851851851851],[-0.29444444444444445],[1],[0],[0],[1.9529976999619976],[0],['target'],694694,001,2023-09-28_14h56.00.321,visualsearch,2023.1.3,59.968756277437926,
199,0,199,0,10,444.72022249992006,444.72022249992006,0.022822399972938,[-0.18333333333333332],[-0.2074074074074074],[1],[0],[0],[1.8400714000454172],[0],['target'],694694,001,2023-09-28_14h56.00.321,visualsearch,2023.1.3,59.968756277437926,
