trials.thisRepN,trials.thisTrialN,trials.thisN,trials.thisIndex,num_distr,fixation.started,target.started,mouse.started,mouse.x,mouse.y,mouse.leftButton,mouse.midButton,mouse.rightButton,mouse.time,mouse.clicked_name,participant,session,date,expName,psychopyVersion,frameRate,
0,0,0,0,5,79.79895620000025,79.79895620000025,0.021029899995482992,[0.2708333333333333],[-0.4224537037037037],[1],[0],[0],[2.9092734000005294],['target'],003,001,2023-09-27_10h56.34.961,Visual Search,2023.1.3,144.29473064333908,
1,0,1,0,5,82.71297310000227,82.71297310000227,0.013327699998626485,[0.19560185185185186],[0.4861111111111111],[1],[0],[0],[2.6115283999970416],['target'],003,001,2023-09-27_10h56.34.961,Visual Search,2023.1.3,144.29473064333908,
2,0,2,0,5,85.34234930000093,85.34234930000093,0.012474900002416689,[0.4710648148148148],[0.44907407407407407],[1],[0],[0],[2.094102400005795],['target'],003,001,2023-09-27_10h56.34.961,Visual Search,2023.1.3,144.29473064333908,
3,0,3,0,10,87.46513380000397,87.46513380000397,0.02353179999772692,[-0.2534722222222222],[-0.12962962962962962],[1],[0],[0],[2.1654959000006784],['target'],003,001,2023-09-27_10h56.34.961,Visual Search,2023.1.3,144.29473064333908,
4,0,4,0,10,89.65025620000233,89.65025620000233,0.02239539999573026,[-0.26851851851851855],[-0.06712962962962964],[1],[0],[0],[1.924117299997306],['target'],003,001,2023-09-27_10h56.34.961,Visual Search,2023.1.3,144.29473064333908,
5,0,5,0,5,91.59279909999896,91.59279909999896,0.012536499998532236,[-0.35300925925925924],[0.32407407407407407],[1],[0],[0],[1.8021841000008862],['target'],003,001,2023-09-27_10h56.34.961,Visual Search,2023.1.3,144.29473064333908,
6,0,6,0,5,93.41023520000454,93.41023520000454,0.01310189999639988,[0.1863425925925926],[0.3993055555555556],[1],[0],[0],[1.6264916000000085],['target'],003,001,2023-09-27_10h56.34.961,Visual Search,2023.1.3,144.29473064333908,
7,0,7,0,5,95.05456740000227,95.05456740000227,0.012832300002628472,[-0.17824074074074073],[-0.17708333333333334],[1],[0],[0],[1.281611200000043],['target'],003,001,2023-09-27_10h56.34.961,Visual Search,2023.1.3,144.29473064333908,
8,0,8,0,10,96.36551090000285,96.36551090000285,0.022828900000604335,[0.16898148148148148],[-0.13078703703703703],[1],[0],[0],[1.2293220999999903],['target'],003,001,2023-09-27_10h56.34.961,Visual Search,2023.1.3,144.29473064333908,
9,0,9,0,10,97.62071460000152,97.62071460000152,0.023893600002338644,[-0.03125],[-0.26851851851851855],[1],[0],[0],[1.2217173000026378],['target'],003,001,2023-09-27_10h56.34.961,Visual Search,2023.1.3,144.29473064333908,
10,0,10,0,10,98.86941510000179,98.86941510000179,0.022589999993215315,[0.2349537037037037],[-0.29398148148148145],[1],[0],[0],[1.6881040000007488],['target'],003,001,2023-09-27_10h56.34.961,Visual Search,2023.1.3,144.29473064333908,
11,0,11,0,10,100.58353640000132,100.58353640000132,0.026581799997074995,[-0.42476851851851855],[-0.16898148148148148],[1],[0],[0],[1.6425502999991295],['target'],003,001,2023-09-27_10h56.34.961,Visual Search,2023.1.3,144.29473064333908,
12,0,12,0,5,102.24190190000081,102.24190190000081,0.012638000000151806,[0.35300925925925924],[0.19444444444444445],[1],[0],[0],[1.4911093000046094],['target'],003,001,2023-09-27_10h56.34.961,Visual Search,2023.1.3,144.29473064333908,
13,0,13,0,10,103.76074080000399,103.76074080000399,0.023240999995323364,[-0.21180555555555555],[-0.4351851851851852],[1],[0],[0],[1.5547095000001718],['target'],003,001,2023-09-27_10h56.34.961,Visual Search,2023.1.3,144.29473064333908,
14,0,14,0,10,105.34230960000423,105.34230960000423,0.02346189999661874,[0.11342592592592593],[0.4085648148148148],[1],[0],[0],[1.6112339000028442],['target'],003,001,2023-09-27_10h56.34.961,Visual Search,2023.1.3,144.29473064333908,
15,0,15,0,10,106.97980059999827,106.97980059999827,0.023122599995986093,[-0.18981481481481483],[0.39699074074074076],[1],[0],[0],[1.1887672999946517],['target'],003,001,2023-09-27_10h56.34.961,Visual Search,2023.1.3,144.29473064333908,
16,0,16,0,10,108.19363460000022,108.19363460000022,0.02336759999889182,[-0.3506944444444444],[-0.4699074074074074],[1],[0],[0],[2.0685197000057087],['target'],003,001,2023-09-27_10h56.34.961,Visual Search,2023.1.3,144.29473064333908,
17,0,17,0,10,110.28860810000333,110.28860810000333,0.02305319999868516,[-0.2326388888888889],[-0.005787037037037037],[1],[0],[0],[1.623885799999698],['target'],003,001,2023-09-27_10h56.34.961,Visual Search,2023.1.3,144.29473064333908,
18,0,18,0,5,111.92553570000018,111.92553570000018,0.013897299999371171,[0.21412037037037038],[0.46064814814814814],[1],[0],[0],[1.7869267999994918],['target'],003,001,2023-09-27_10h56.34.961,Visual Search,2023.1.3,144.29473064333908,
19,0,19,0,5,113.72932060000312,113.72932060000312,0.012763600003381725,[0.10532407407407407],[-0.3298611111111111],[1],[0],[0],[1.5029533000051742],['target'],003,001,2023-09-27_10h56.34.961,Visual Search,2023.1.3,144.29473064333908,
20,0,20,0,10,115.2627988000022,115.2627988000022,0.022575399998459034,[-0.3900462962962963],[0.3958333333333333],[1],[0],[0],[2.055423800004064],['target'],003,001,2023-09-27_10h56.34.961,Visual Search,2023.1.3,144.29473064333908,
21,0,21,0,5,117.32996770000318,117.32996770000318,0.013037199998507276,[-0.041666666666666664],[-0.2465277777777778],[1],[0],[0],[1.1772784999993746],['target'],003,001,2023-09-27_10h56.34.961,Visual Search,2023.1.3,144.29473064333908,
22,0,22,0,5,118.52308970000013,118.52308970000013,0.012734199997794349,[-0.39814814814814814],[0.2569444444444444],[1],[0],[0],[1.219451700002537],['target'],003,001,2023-09-27_10h56.34.961,Visual Search,2023.1.3,144.29473064333908,
23,0,23,0,10,119.77865530000417,119.77865530000417,0.030795800004852936,[0.41087962962962965],[0.4479166666666667],[1],[0],[0],[2.2413730999978725],['target'],003,001,2023-09-27_10h56.34.961,Visual Search,2023.1.3,144.29473064333908,
24,0,24,0,10,122.04723370000283,122.04723370000283,0.02346179999585729,[-0.07060185185185185],[-0.09027777777777778],[1],[0],[0],[1.6108430000022054],['target'],003,001,2023-09-27_10h56.34.961,Visual Search,2023.1.3,144.29473064333908,
25,0,25,0,10,123.68447849999939,123.68447849999939,0.022854800001368858,[-0.27314814814814814],[0.3738425925925926],[1],[0],[0],[1.2649089000042295],['target'],003,001,2023-09-27_10h56.34.961,Visual Search,2023.1.3,144.29473064333908,
26,0,26,0,5,124.96075969999947,124.96075969999947,0.013357699994230643,[-0.4699074074074074],[0.019675925925925927],[1],[0],[0],[1.741129699999874],['target'],003,001,2023-09-27_10h56.34.961,Visual Search,2023.1.3,144.29473064333908,
27,0,27,0,5,126.71619780000037,126.71619780000037,0.011849500006064773,[0.40625],[-0.42824074074074076],[1],[0],[0],[2.146200499999395],['target'],003,001,2023-09-27_10h56.34.961,Visual Search,2023.1.3,144.29473064333908,
28,0,28,0,10,128.89434489999985,128.89434489999985,0.023473399996873923,[0.21875],[0.1111111111111111],[1],[0],[0],[1.6109968000018853],['target'],003,001,2023-09-27_10h56.34.961,Visual Search,2023.1.3,144.29473064333908,
29,0,29,0,5,130.51748940000107,130.51748940000107,0.01233219999994617,[0.2650462962962963],[0.22800925925925927],[1],[0],[0],[1.947927699999127],['target'],003,001,2023-09-27_10h56.34.961,Visual Search,2023.1.3,144.29473064333908,
30,0,30,0,5,132.48062420000497,132.48062420000497,0.012998899997910485,[0.21296296296296297],[-0.4224537037037037],[1],[0],[0],[1.5514494000017294],['target'],003,001,2023-09-27_10h56.34.961,Visual Search,2023.1.3,144.29473064333908,
31,0,31,0,10,134.06270239999867,134.06270239999867,0.022813999996287748,[-0.38078703703703703],[-0.041666666666666664],[1],[0],[0],[1.4313065000023926],['target'],003,001,2023-09-27_10h56.34.961,Visual Search,2023.1.3,144.29473064333908,
32,0,32,0,5,135.50553539999964,135.50553539999964,0.013491899997461587,[0.4479166666666667],[0.41550925925925924],[1],[0],[0],[1.8921004999938305],['target'],003,001,2023-09-27_10h56.34.961,Visual Search,2023.1.3,144.29473064333908,
33,0,33,0,5,137.42028030000074,137.42028030000074,0.01924430000508437,[0.16435185185185186],[0.3125],[1],[0],[0],[1.28690259999712],['target'],003,001,2023-09-27_10h56.34.961,Visual Search,2023.1.3,144.29473064333908,
34,0,34,0,5,138.72445800000423,138.72445800000423,0.012648700001591351,[-0.20023148148148148],[-0.45717592592592593],[1],[0],[0],[1.6832999999969616],['target'],003,001,2023-09-27_10h56.34.961,Visual Search,2023.1.3,144.29473064333908,
35,0,35,0,10,140.43812590000016,140.43812590000016,0.023379999998724088,[-0.26157407407407407],[0.06597222222222222],[1],[0],[0],[1.51313630000368],['target'],003,001,2023-09-27_10h56.34.961,Visual Search,2023.1.3,144.29473064333908,
36,0,36,0,5,141.9639970999997,141.9639970999997,0.012841700001445133,[-0.1886574074074074],[0.4849537037037037],[1],[0],[0],[3.039030300002196],['target'],003,001,2023-09-27_10h56.34.961,Visual Search,2023.1.3,144.29473064333908,
37,0,37,0,10,145.03041830000438,145.03041830000438,0.0222522999974899,[-0.4375],[0.4525462962962963],[1],[0],[0],[1.6792375999939395],['target'],003,001,2023-09-27_10h56.34.961,Visual Search,2023.1.3,144.29473064333908,
38,0,38,0,5,146.72269940000115,146.72269940000115,0.013434400003461633,[0.4895833333333333],[-0.2962962962962963],[1],[0],[0],[1.5045366999984253],['target'],003,001,2023-09-27_10h56.34.961,Visual Search,2023.1.3,144.29473064333908,
39,0,39,0,5,148.24935630000255,148.24935630000255,0.01758430000336375,[-0.11226851851851852],[0.2673611111111111],[1],[0],[0],[1.3167195999994874],['target'],003,001,2023-09-27_10h56.34.961,Visual Search,2023.1.3,144.29473064333908,
40,0,40,0,10,149.59526570000162,149.59526570000162,0.023794599997927435,[-0.2361111111111111],[-0.13773148148148148],[1],[0],[0],[1.3597841000009794],['target'],003,001,2023-09-27_10h56.34.961,Visual Search,2023.1.3,144.29473064333908,
41,0,41,0,10,150.9826045000009,150.9826045000009,0.023613199999090284,[0.10069444444444445],[-0.1099537037037037],[1],[0],[0],[1.611615299996629],['target'],003,001,2023-09-27_10h56.34.961,Visual Search,2023.1.3,144.29473064333908,
42,0,42,0,5,152.60593470000458,152.60593470000458,0.01294179999968037,[-0.4027777777777778],[-0.1527777777777778],[1],[0],[0],[1.6611975999985589],['target'],003,001,2023-09-27_10h56.34.961,Visual Search,2023.1.3,144.29473064333908,
43,0,43,0,5,154.2847555000044,154.2847555000044,0.012685300003795419,[-0.25578703703703703],[-0.2974537037037037],[1],[0],[0],[1.5390026000022772],['target'],003,001,2023-09-27_10h56.34.961,Visual Search,2023.1.3,144.29473064333908,
44,0,44,0,5,155.83877590000338,155.83877590000338,0.01252849999582395,[0.19444444444444445],[0.40625],[1],[0],[0],[1.6970159000047715],['target'],003,001,2023-09-27_10h56.34.961,Visual Search,2023.1.3,144.29473064333908,
45,0,45,0,10,157.56643360000453,157.56643360000453,0.02293130000180099,[-0.3472222222222222],[-0.09837962962962964],[1],[0],[0],[1.6119907000029343],['target'],003,001,2023-09-27_10h56.34.961,Visual Search,2023.1.3,144.29473064333908,
46,0,46,0,5,159.1893837000025,159.1893837000025,0.01303370000096038,[-0.11226851851851852],[-0.4212962962962963],[1],[0],[0],[1.724763799997163],['target'],003,001,2023-09-27_10h56.34.961,Visual Search,2023.1.3,144.29473064333908,
47,0,47,0,5,160.93237229999795,160.93237229999795,0.012575900000229012,[0.2708333333333333],[-0.10185185185185185],[1],[0],[0],[1.4340488999951049],['target'],003,001,2023-09-27_10h56.34.961,Visual Search,2023.1.3,144.29473064333908,
48,0,48,0,5,162.3804764000015,162.3804764000015,0.014170899994496722,[0.22916666666666666],[0.32523148148148145],[1],[0],[0],[1.6984130999990157],['target'],003,001,2023-09-27_10h56.34.961,Visual Search,2023.1.3,144.29473064333908,
49,0,49,0,10,164.10768340000504,164.10768340000504,0.0224235999994562,[-0.47453703703703703],[0.44675925925925924],[1],[0],[0],[1.9855077999964124],['target'],003,001,2023-09-27_10h56.34.961,Visual Search,2023.1.3,144.29473064333908,
50,0,50,0,5,166.10594230000424,166.10594230000424,0.01269210000464227,[-0.14583333333333334],[-0.12731481481481483],[1],[0],[0],[2.0328147999971407],['target'],003,001,2023-09-27_10h56.34.961,Visual Search,2023.1.3,144.29473064333908,
51,0,51,0,5,168.1523529000042,168.1523529000042,0.011287100001936778,[0.10185185185185185],[-0.33564814814814814],[1],[0],[0],[1.4327635999943595],['target'],003,001,2023-09-27_10h56.34.961,Visual Search,2023.1.3,144.29473064333908,
52,0,52,0,10,169.61619190000056,169.61619190000056,0.024031400003877934,[0.027777777777777776],[-0.35300925925925924],[1],[0],[0],[1.7339030000002822],['target'],003,001,2023-09-27_10h56.34.961,Visual Search,2023.1.3,144.29473064333908,
53,0,53,0,10,171.37827330000437,171.37827330000437,0.022373300002072938,[-0.25925925925925924],[0.2974537037037037],[1],[0],[0],[1.65384990000166],['target'],003,001,2023-09-27_10h56.34.961,Visual Search,2023.1.3,144.29473064333908,
54,0,54,0,5,173.04295950000233,173.04295950000233,0.013410100000328384,[0.4236111111111111],[0.4479166666666667],[1],[0],[0],[1.8845599999986007],['target'],003,001,2023-09-27_10h56.34.961,Visual Search,2023.1.3,144.29473064333908,
55,0,55,0,5,174.9439757,174.9439757,0.012406699999701232,[-0.1412037037037037],[0.25],[1],[0],[0],[1.6179752000025474],['target'],003,001,2023-09-27_10h56.34.961,Visual Search,2023.1.3,144.29473064333908,
56,0,56,0,10,176.5879333999983,176.5879333999983,0.021241700000246055,[-0.004629629629629629],[-0.4756944444444444],[1],[0],[0],[2.42855679999775],['target'],003,001,2023-09-27_10h56.34.961,Visual Search,2023.1.3,144.29473064333908,
57,0,57,0,10,179.04366370000207,179.04366370000207,0.023345199995674193,[0.4664351851851852],[0.49074074074074076],[1],[0],[0],[2.4428667000029236],['target'],003,001,2023-09-27_10h56.34.961,Visual Search,2023.1.3,144.29473064333908,
58,0,58,0,10,181.50631209999847,181.50631209999847,0.02227610000409186,[-0.18287037037037038],[-0.22685185185185186],[1],[0],[0],[1.6048912000042037],['target'],003,001,2023-09-27_10h56.34.961,Visual Search,2023.1.3,144.29473064333908,
59,0,59,0,5,183.12957610000012,183.12957610000012,0.012417400001140777,[0.2569444444444444],[-0.44675925925925924],[1],[0],[0],[1.587104799997178],['target'],003,001,2023-09-27_10h56.34.961,Visual Search,2023.1.3,144.29473064333908,
60,0,60,0,10,184.74632040000142,184.74632040000142,0.02356579999468522,[0.14814814814814814],[-0.09490740740740741],[1],[0],[0],[1.6529634000035003],['target'],003,001,2023-09-27_10h56.34.961,Visual Search,2023.1.3,144.29473064333908,
61,0,61,0,5,186.4110862000016,186.4110862000016,0.012162200000602752,[-0.5034722222222222],[-0.10300925925925926],[1],[0],[0],[1.6561519000024418],['target'],003,001,2023-09-27_10h56.34.961,Visual Search,2023.1.3,144.29473064333908,
62,0,62,0,10,188.09691510000266,188.09691510000266,0.0229170000020531,[0.09490740740740741],[0.05439814814814815],[1],[0],[0],[1.4300285999997868],['target'],003,001,2023-09-27_10h56.34.961,Visual Search,2023.1.3,144.29473064333908,
63,0,63,0,10,189.55388030000177,189.55388030000177,0.023056099998939317,[-0.42592592592592593],[-0.36226851851851855],[1],[0],[0],[1.7785210000001825],['target'],003,001,2023-09-27_10h56.34.961,Visual Search,2023.1.3,144.29473064333908,
64,0,64,0,10,191.3570796999993,191.3570796999993,0.022383800001989584,[-0.14699074074074073],[0.4722222222222222],[1],[0],[0],[2.1940136999983224],['target'],003,001,2023-09-27_10h56.34.961,Visual Search,2023.1.3,144.29473064333908,
65,0,65,0,5,193.56312210000033,193.56312210000033,0.012255800000275485,[-0.11458333333333333],[-0.4699074074074074],[1],[0],[0],[2.1628707999989274],['target'],003,001,2023-09-27_10h56.34.961,Visual Search,2023.1.3,144.29473064333908,
66,0,66,0,5,195.74159650000365,195.74159650000365,0.013948199994047172,[0.09375],[0.30324074074074076],[1],[0],[0],[1.5164218999998411],['target'],003,001,2023-09-27_10h56.34.961,Visual Search,2023.1.3,144.29473064333908,
67,0,67,0,5,197.2749821000034,197.2749821000034,0.012503500001912471,[-0.09143518518518519],[-0.46296296296296297],[1],[0],[0],[1.3539935000007972],['target'],003,001,2023-09-27_10h56.34.961,Visual Search,2023.1.3,144.29473064333908,
68,0,68,0,10,198.65543289999914,198.65543289999914,0.02475340000091819,[-0.2650462962962963],[-0.3888888888888889],[1],[0],[0],[1.9957356999948388],['target'],003,001,2023-09-27_10h56.34.961,Visual Search,2023.1.3,144.29473064333908,
69,0,69,0,10,200.67386840000108,200.67386840000108,0.021966800006339327,[-0.08796296296296297],[-0.3587962962962963],[1],[0],[0],[1.160959200002253],['target'],003,001,2023-09-27_10h56.34.961,Visual Search,2023.1.3,144.29473064333908,
70,0,70,0,5,201.85348220000014,201.85348220000014,0.012544600002001971,[0.011574074074074073],[0.2986111111111111],[1],[0],[0],[1.26221909999731],['target'],003,001,2023-09-27_10h56.34.961,Visual Search,2023.1.3,144.29473064333908,
71,0,71,0,5,203.12990700000228,203.12990700000228,0.012703899999905843,[-0.015046296296296295],[-0.09837962962962964],[1],[0],[0],[1.1345616999969934],['target'],003,001,2023-09-27_10h56.34.961,Visual Search,2023.1.3,144.29473064333908,
72,0,72,0,10,204.29551060000085,204.29551060000085,0.022364600001310464,[-0.03009259259259259],[0.013888888888888888],[1],[0],[0],[2.8255508999936865],['target'],003,001,2023-09-27_10h56.34.961,Visual Search,2023.1.3,144.29473064333908,
73,0,73,0,10,207.14667159999954,207.14667159999954,0.022758800005249213,[-0.41203703703703703],[-0.09027777777777778],[1],[0],[0],[2.0004093000025023],['target'],003,001,2023-09-27_10h56.34.961,Visual Search,2023.1.3,144.29473064333908,
74,0,74,0,10,209.1861476999984,209.1861476999984,0.03310620000411291,[0.08912037037037036],[0.4722222222222222],[1],[0],[0],[1.5166737999970792],['target'],003,001,2023-09-27_10h56.34.961,Visual Search,2023.1.3,144.29473064333908,
75,0,75,0,5,210.7125565000024,210.7125565000024,0.012411499999871012,[0.02662037037037037],[0.2800925925925926],[1],[0],[0],[1.2699658000055933],['target'],003,001,2023-09-27_10h56.34.961,Visual Search,2023.1.3,144.29473064333908,
76,0,76,0,10,212.00971990000107,212.00971990000107,0.023895900005300064,[-0.05787037037037037],[0.2349537037037037],[1],[0],[0],[1.1784896999961347],['target'],003,001,2023-09-27_10h56.34.961,Visual Search,2023.1.3,144.29473064333908,
77,0,77,0,5,213.20288509999955,213.20288509999955,0.012238199997227639,[-0.42939814814814814],[-0.03356481481481482],[1],[0],[0],[1.4547182000023895],['target'],003,001,2023-09-27_10h56.34.961,Visual Search,2023.1.3,144.29473064333908,
78,0,78,0,10,214.6874792000017,214.6874792000017,0.02254250000260072,[0.24074074074074073],[-0.18055555555555555],[1],[0],[0],[1.2367264999993495],['target'],003,001,2023-09-27_10h56.34.961,Visual Search,2023.1.3,144.29473064333908,
79,0,79,0,5,215.93610279999848,215.93610279999848,0.012323900002229493,[0.034722222222222224],[0.06597222222222222],[1],[0],[0],[1.2820076999996672],['target'],003,001,2023-09-27_10h56.34.961,Visual Search,2023.1.3,144.29473064333908,
80,0,80,0,10,217.24733740000374,217.24733740000374,0.022392199993191753,[-0.20023148148148148],[0.08449074074074074],[1],[0],[0],[1.2239198000024771],['target'],003,001,2023-09-27_10h56.34.961,Visual Search,2023.1.3,144.29473064333908,
81,0,81,0,5,218.4821665999989,218.4821665999989,0.012561899995489512,[-0.22106481481481483],[-0.40046296296296297],[1],[0],[0],[1.447658799996134],['target'],003,001,2023-09-27_10h56.34.961,Visual Search,2023.1.3,144.29473064333908,
82,0,82,0,5,219.94575640000403,219.94575640000403,0.013317600001755636,[0.14467592592592593],[-0.41782407407407407],[1],[0],[0],[1.2815422999992734],['target'],003,001,2023-09-27_10h56.34.961,Visual Search,2023.1.3,144.29473064333908,
83,0,83,0,5,221.24325279999903,221.24325279999903,0.01394609999988461,[0.4212962962962963],[-0.24074074074074073],[1],[0],[0],[1.3562891999972635],['target'],003,001,2023-09-27_10h56.34.961,Visual Search,2023.1.3,144.29473064333908,
84,0,84,0,10,222.6304483999993,222.6304483999993,0.022662600000330713,[0.13194444444444445],[0.02199074074074074],[1],[0],[0],[1.708715900000243],['target'],003,001,2023-09-27_10h56.34.961,Visual Search,2023.1.3,144.29473064333908,
85,0,85,0,10,224.36485790000006,224.36485790000006,0.023476800000935327,[-0.08564814814814815],[0.09837962962962964],[1],[0],[0],[1.3197389999986626],['target'],003,001,2023-09-27_10h56.34.961,Visual Search,2023.1.3,144.29473064333908,
86,0,86,0,5,225.69675270000153,225.69675270000153,0.013042699996731244,[0.17824074074074073],[-0.07407407407407407],[1],[0],[0],[1.7177267000006395],['target'],003,001,2023-09-27_10h56.34.961,Visual Search,2023.1.3,144.29473064333908,
87,0,87,0,5,227.4310134000043,227.4310134000043,0.012600700007169507,[-0.005787037037037037],[0.19675925925925927],[1],[0],[0],[1.5888294000033056],['target'],003,001,2023-09-27_10h56.34.961,Visual Search,2023.1.3,144.29473064333908,
88,0,88,0,10,229.04749000000447,229.04749000000447,0.023165099999459926,[0.1423611111111111],[-0.4826388888888889],[1],[0],[0],[2.302365600000485],['target'],003,001,2023-09-27_10h56.34.961,Visual Search,2023.1.3,144.29473064333908,
89,0,89,0,5,231.36444360000314,231.36444360000314,0.01253279999946244,[0.1423611111111111],[0.34953703703703703],[1],[0],[0],[1.7950313999972423],['target'],003,001,2023-09-27_10h56.34.961,Visual Search,2023.1.3,144.29473064333908,
90,0,90,0,10,233.18890120000287,233.18890120000287,0.025458800002525095,[0.2488425925925926],[0.23032407407407407],[1],[0],[0],[1.5124276999995345],['target'],003,001,2023-09-27_10h56.34.961,Visual Search,2023.1.3,144.29473064333908,
91,0,91,0,5,234.71540580000146,234.71540580000146,0.012698999998974614,[0.11805555555555555],[0.29050925925925924],[1],[0],[0],[1.418542499995965],['target'],003,001,2023-09-27_10h56.34.961,Visual Search,2023.1.3,144.29473064333908,
92,0,92,0,5,236.15116729999863,236.15116729999863,0.013698499999009073,[-0.22685185185185186],[-0.4675925925925926],[1],[0],[0],[1.648720699995465],['target'],003,001,2023-09-27_10h56.34.961,Visual Search,2023.1.3,144.29473064333908,
93,0,93,0,10,237.8304296999995,237.8304296999995,0.023667199995543342,[0.23726851851851852],[0.19560185185185186],[1],[0],[0],[1.9017797999986215],['target'],003,001,2023-09-27_10h56.34.961,Visual Search,2023.1.3,144.29473064333908,
94,0,94,0,5,239.75171180000325,239.75171180000325,0.016742299994803034,[0.02662037037037037],[-0.15162037037037038],[1],[0],[0],[1.638064899998426],['target'],003,001,2023-09-27_10h56.34.961,Visual Search,2023.1.3,144.29473064333908,
95,0,95,0,5,241.40283199999976,241.40283199999976,0.01302620000205934,[-0.44907407407407407],[0.4756944444444444],[1],[0],[0],[1.890873600001214],['target'],003,001,2023-09-27_10h56.34.961,Visual Search,2023.1.3,144.29473064333908,
96,0,96,0,5,243.31075740000233,243.31075740000233,0.01276040000084322,[-0.12037037037037036],[0.07060185185185185],[1],[0],[0],[1.6370383000030415],['target'],003,001,2023-09-27_10h56.34.961,Visual Search,2023.1.3,144.29473064333908,
97,0,97,0,5,244.96160419999796,244.96160419999796,0.01318100000207778,[-0.43171296296296297],[0.13194444444444445],[1],[0],[0],[1.4799975999994786],['target'],003,001,2023-09-27_10h56.34.961,Visual Search,2023.1.3,144.29473064333908,
98,0,98,0,5,246.46011710000312,246.46011710000312,0.013707400001294445,[-0.08449074074074074],[0.28703703703703703],[1],[0],[0],[1.6555484000055003],['target'],003,001,2023-09-27_10h56.34.961,Visual Search,2023.1.3,144.29473064333908,
99,0,99,0,5,248.13177350000478,248.13177350000478,0.012693000004219357,[-0.47337962962962965],[0.3113425925925926],[1],[0],[0],[1.5322661000027438],['target'],003,001,2023-09-27_10h56.34.961,Visual Search,2023.1.3,144.29473064333908,
100,0,100,0,10,249.69259720000264,249.69259720000264,0.0224069000032614,[0.09027777777777778],[-0.2037037037037037],[1],[0],[0],[1.3616145999985747],['target'],003,001,2023-09-27_10h56.34.961,Visual Search,2023.1.3,144.29473064333908,
101,0,101,0,5,251.06597010000405,251.06597010000405,0.014112500000919681,[-0.2951388888888889],[-0.3113425925925926],[1],[0],[0],[1.4674958999967203],['target'],003,001,2023-09-27_10h56.34.961,Visual Search,2023.1.3,144.29473064333908,
102,0,102,0,5,252.55080390000512,252.55080390000512,0.013054000002739485,[-0.4340277777777778],[0.24537037037037038],[1],[0],[0],[1.3848762000052375],['target'],003,001,2023-09-27_10h56.34.961,Visual Search,2023.1.3,144.29473064333908,
103,0,103,0,5,253.9522539000027,253.9522539000027,0.012837000002036802,[0.4270833333333333],[0.18287037037037038],[1],[0],[0],[1.648384400003124],['target'],003,001,2023-09-27_10h56.34.961,Visual Search,2023.1.3,144.29473064333908,
104,0,104,0,10,255.62405679999938,255.62405679999938,0.02214309999544639,[-0.39699074074074076],[-0.0625],[1],[0],[0],[1.7296410999988439],['target'],003,001,2023-09-27_10h56.34.961,Visual Search,2023.1.3,144.29473064333908,
105,0,105,0,10,257.38616880000336,257.38616880000336,0.023065800000040326,[-0.4131944444444444],[-0.02662037037037037],[1],[0],[0],[1.3900580999979866],['target'],003,001,2023-09-27_10h56.34.961,Visual Search,2023.1.3,144.29473064333908,
106,0,106,0,5,258.78760820000025,258.78760820000025,0.012561499999719672,[0.17708333333333334],[0.47685185185185186],[1],[0],[0],[1.3501261999990675],['target'],003,001,2023-09-27_10h56.34.961,Visual Search,2023.1.3,144.29473064333908,
107,0,107,0,10,260.17498709999927,260.17498709999927,0.028979900002013892,[-0.09143518518518519],[-0.4722222222222222],[1],[0],[0],[1.9038718000010704],['target'],003,001,2023-09-27_10h56.34.961,Visual Search,2023.1.3,144.29473064333908,
108,0,108,0,10,262.10370690000127,262.10370690000127,0.021835800005646888,[-0.2025462962962963],[0.3148148148148148],[1],[0],[0],[1.584379899999476],['target'],003,001,2023-09-27_10h56.34.961,Visual Search,2023.1.3,144.29473064333908,
109,0,109,0,5,263.6992215999999,263.6992215999999,0.012245400001120288,[-0.3449074074074074],[0.2974537037037037],[1],[0],[0],[1.3302255000016885],['target'],003,001,2023-09-27_10h56.34.961,Visual Search,2023.1.3,144.29473064333908,
110,0,110,0,10,265.05891130000236,265.05891130000236,0.023707300002570264,[0.2800925925925926],[-0.3148148148148148],[1],[0],[0],[1.735368900001049],['target'],003,001,2023-09-27_10h56.34.961,Visual Search,2023.1.3,144.29473064333908,
111,0,111,0,5,266.8067328000034,266.8067328000034,0.012805999998818152,[0.18981481481481483],[0.4837962962962963],[1],[0],[0],[1.9826675000003888],['target'],003,001,2023-09-27_10h56.34.961,Visual Search,2023.1.3,144.29473064333908,
112,0,112,0,10,268.81891840000026,268.81891840000026,0.022294100002909545,[0.12731481481481483],[0.3333333333333333],[1],[0],[0],[2.45886469999823],['target'],003,001,2023-09-27_10h56.34.961,Visual Search,2023.1.3,144.29473064333908,
113,0,113,0,5,271.28836350000347,271.28836350000347,0.012336799998593051,[-0.46064814814814814],[-0.2916666666666667],[1],[0],[0],[1.4778347000028589],['target'],003,001,2023-09-27_10h56.34.961,Visual Search,2023.1.3,144.29473064333908,
114,0,114,0,5,272.77992310000263,272.77992310000263,0.012436000004527159,[-0.03819444444444445],[-0.17939814814814814],[1],[0],[0],[2.091446200000064],['target'],003,001,2023-09-27_10h56.34.961,Visual Search,2023.1.3,144.29473064333908,
115,0,115,0,10,274.9027292000028,274.9027292000028,0.02459630000521429,[-0.02546296296296296],[0.1388888888888889],[1],[0],[0],[1.2630272000023979],['target'],003,001,2023-09-27_10h56.34.961,Visual Search,2023.1.3,144.29473064333908,
116,0,116,0,10,276.19303560000117,276.19303560000117,0.022270899993600324,[-0.14351851851851852],[0.36226851851851855],[1],[0],[0],[1.1958147999976063],['target'],003,001,2023-09-27_10h56.34.961,Visual Search,2023.1.3,144.29473064333908,
117,0,117,0,5,277.40055060000304,277.40055060000304,0.01332900000124937,[0.4074074074074074],[-0.3472222222222222],[1],[0],[0],[1.5941509999975096],['target'],003,001,2023-09-27_10h56.34.961,Visual Search,2023.1.3,144.29473064333908,
118,0,118,0,10,279.0235957000041,279.0235957000041,0.02342320000025211,[-0.43287037037037035],[0.35532407407407407],[1],[0],[0],[1.9562974000000395],['target'],003,001,2023-09-27_10h56.34.961,Visual Search,2023.1.3,144.29473064333908,
119,0,119,0,10,281.00767530000303,281.00767530000303,0.023158700001658872,[0.34375],[0.33101851851851855],[1],[0],[0],[1.7084314999956405],['target'],003,001,2023-09-27_10h56.34.961,Visual Search,2023.1.3,144.29473064333908,
120,0,120,0,10,282.73455600000307,282.73455600000307,0.02256830000260379,[-0.34375],[-0.2048611111111111],[1],[0],[0],[1.7160657000058563],['target'],003,001,2023-09-27_10h56.34.961,Visual Search,2023.1.3,144.29473064333908,
121,0,121,0,10,284.48333030000504,284.48333030000504,0.02343020000262186,[0.04861111111111111],[-0.14930555555555555],[1],[0],[0],[1.7082671000025584],['target'],003,001,2023-09-27_10h56.34.961,Visual Search,2023.1.3,144.29473064333908,
122,0,122,0,5,286.20362240000395,286.20362240000395,0.013139099995896686,[-0.2048611111111111],[-0.12962962962962962],[1],[0],[0],[1.58527000000322],['target'],003,001,2023-09-27_10h56.34.961,Visual Search,2023.1.3,144.29473064333908,
123,0,123,0,5,287.8058400000009,287.8058400000009,0.012882600000011735,[-0.32523148148148145],[-0.009259259259259259],[1],[0],[0],[1.357810800000152],['target'],003,001,2023-09-27_10h56.34.961,Visual Search,2023.1.3,144.29473064333908,
124,0,124,0,5,289.1797471000027,289.1797471000027,0.013281300001835916,[0.38310185185185186],[-0.3576388888888889],[1],[0],[0],[1.898727499996312],['target'],003,001,2023-09-27_10h56.34.961,Visual Search,2023.1.3,144.29473064333908,
125,0,125,0,10,291.1081262000007,291.1081262000007,0.023501800002122764,[-0.4537037037037037],[0.46875],[1],[0],[0],[1.9575580000018817],['target'],003,001,2023-09-27_10h56.34.961,Visual Search,2023.1.3,144.29473064333908,
126,0,126,0,10,293.0922598000034,293.0922598000034,0.022417000000132248,[0.2777777777777778],[-0.08796296296296297],[1],[0],[0],[1.667634099998395],['target'],003,001,2023-09-27_10h56.34.961,Visual Search,2023.1.3,144.29473064333908,
127,0,127,0,10,294.78499990000273,294.78499990000273,0.024612099994556047,[-0.23958333333333334],[-0.4212962962962963],[1],[0],[0],[1.9696815999996033],['target'],003,001,2023-09-27_10h56.34.961,Visual Search,2023.1.3,144.29473064333908,
128,0,128,0,5,296.7689659000025,296.7689659000025,0.013394699999480508,[-0.1701388888888889],[0.4664351851851852],[1],[0],[0],[1.5105273999943165],['target'],003,001,2023-09-27_10h56.34.961,Visual Search,2023.1.3,144.29473064333908,
129,0,129,0,5,298.2951643999986,298.2951643999986,0.012916200001200195,[-0.032407407407407406],[-0.4201388888888889],[1],[0],[0],[1.7666871000037645],['target'],003,001,2023-09-27_10h56.34.961,Visual Search,2023.1.3,144.29473064333908,
130,0,130,0,5,300.0781485000043,300.0781485000043,0.012781199999153614,[0.38773148148148145],[0.24768518518518517],[1],[0],[0],[1.7535191000060877],['target'],003,001,2023-09-27_10h56.34.961,Visual Search,2023.1.3,144.29473064333908,
131,0,131,0,10,301.8608586000046,301.8608586000046,0.02443590000621043,[0.46875],[0.26273148148148145],[1],[0],[0],[1.5404724999971222],['target'],003,001,2023-09-27_10h56.34.961,Visual Search,2023.1.3,144.29473064333908,
132,0,132,0,10,303.428645699998,303.428645699998,0.022120200002973434,[0.3333333333333333],[-0.3194444444444444],[1],[0],[0],[2.0560617000010097],['target'],003,001,2023-09-27_10h56.34.961,Visual Search,2023.1.3,144.29473064333908,
133,0,133,0,10,305.5099230000051,305.5099230000051,0.02283309999620542,[0.26851851851851855],[0.12037037037037036],[1],[0],[0],[1.8466456000023754],['target'],003,001,2023-09-27_10h56.34.961,Visual Search,2023.1.3,144.29473064333908,
134,0,134,0,5,307.36906589999853,307.36906589999853,0.013022200000705197,[0.3101851851851852],[-0.11226851851851852],[1],[0],[0],[1.474845999997342],['target'],003,001,2023-09-27_10h56.34.961,Visual Search,2023.1.3,144.29473064333908,
135,0,135,0,5,308.8603607000041,308.8603607000041,0.013730700004089158,[0.33796296296296297],[-0.3229166666666667],[1],[0],[0],[1.544636200000241],['target'],003,001,2023-09-27_10h56.34.961,Visual Search,2023.1.3,144.29473064333908,
136,0,136,0,5,310.42158930000005,310.42158930000005,0.013628299995616544,[-0.3136574074074074],[0.14699074074074073],[1],[0],[0],[1.7599511999942479],['target'],003,001,2023-09-27_10h56.34.961,Visual Search,2023.1.3,144.29473064333908,
137,0,137,0,5,312.19751189999806,312.19751189999806,0.012673999997787178,[0.3229166666666667],[0.3275462962962963],[1],[0],[0],[1.6899620000040159],['target'],003,001,2023-09-27_10h56.34.961,Visual Search,2023.1.3,144.29473064333908,
138,0,138,0,10,313.91797500000393,313.91797500000393,0.025656900004833005,[0.09953703703703703],[0.20949074074074073],[1],[0],[0],[1.6779618000000482],['target'],003,001,2023-09-27_10h56.34.961,Visual Search,2023.1.3,144.29473064333908,
139,0,139,0,10,315.6244431000014,315.6244431000014,0.02217899999959627,[0.3541666666666667],[-0.1886574074074074],[1],[0],[0],[1.6119201999972574],['target'],003,001,2023-09-27_10h56.34.961,Visual Search,2023.1.3,144.29473064333908,
140,0,140,0,10,317.2545276000019,317.2545276000019,0.022127500000351574,[0.2743055555555556],[0.2048611111111111],[1],[0],[0],[1.6330490999971516],['target'],003,001,2023-09-27_10h56.34.961,Visual Search,2023.1.3,144.29473064333908,
141,0,141,0,5,318.90587719999894,318.90587719999894,0.012536300004285295,[0.47337962962962965],[-0.46875],[1],[0],[0],[1.677404399997613],['target'],003,001,2023-09-27_10h56.34.961,Visual Search,2023.1.3,144.29473064333908,
142,0,142,0,10,320.61225900000136,320.61225900000136,0.0222252000021399,[0.14467592592592593],[-0.3148148148148148],[1],[0],[0],[1.54191990000254],['target'],003,001,2023-09-27_10h56.34.961,Visual Search,2023.1.3,144.29473064333908,
143,0,143,0,5,322.1664071999985,322.1664071999985,0.01316429999860702,[0.41782407407407407],[-0.04282407407407408],[1],[0],[0],[2.023004499998933],['target'],003,001,2023-09-27_10h56.34.961,Visual Search,2023.1.3,144.29473064333908,
144,0,144,0,10,324.2196732000011,324.2196732000011,0.02245099999709055,[0.18171296296296297],[-0.22453703703703703],[1],[0],[0],[1.3070181000002776],['target'],003,001,2023-09-27_10h56.34.961,Visual Search,2023.1.3,144.29473064333908,
145,0,145,0,5,325.53784740000265,325.53784740000265,0.012822400000004563,[-0.2777777777777778],[-0.30671296296296297],[1],[0],[0],[1.7114828999983729],['target'],003,001,2023-09-27_10h56.34.961,Visual Search,2023.1.3,144.29473064333908,
146,0,146,0,5,327.2651737000051,327.2651737000051,0.013055900002655108,[-0.4351851851851852],[-0.24189814814814814],[1],[0],[0],[1.6148325999965891],['target'],003,001,2023-09-27_10h56.34.961,Visual Search,2023.1.3,144.29473064333908,
147,0,147,0,10,328.90949730000284,328.90949730000284,0.02292759999545524,[-0.2673611111111111],[-0.27314814814814814],[1],[0],[0],[1.4167709999965155],['target'],003,001,2023-09-27_10h56.34.961,Visual Search,2023.1.3,144.29473064333908,
148,0,148,0,5,330.33847270000115,330.33847270000115,0.013228900003014132,[0.45949074074074076],[-0.11921296296296297],[1],[0],[0],[1.7964756000001216],['target'],003,001,2023-09-27_10h56.34.961,Visual Search,2023.1.3,144.29473064333908,
149,0,149,0,10,332.163029000003,332.163029000003,0.021773599997686688,[0.02546296296296296],[-0.06828703703703703],[1],[0],[0],[1.082625499999267],['target'],003,001,2023-09-27_10h56.34.961,Visual Search,2023.1.3,144.29473064333908,
150,0,150,0,5,333.25908309999795,333.25908309999795,0.013328300003195181,[-0.23148148148148148],[0.2789351851851852],[1],[0],[0],[1.5938599000000977],['target'],003,001,2023-09-27_10h56.34.961,Visual Search,2023.1.3,144.29473064333908,
151,0,151,0,10,334.8825276999996,334.8825276999996,0.022620700001425575,[-0.3414351851851852],[0.11805555555555555],[1],[0],[0],[1.2783540999953402],['target'],003,001,2023-09-27_10h56.34.961,Visual Search,2023.1.3,144.29473064333908,
152,0,152,0,10,336.1936713000032,336.1936713000032,0.029690900002606213,[-0.3125],[-0.3761574074074074],[1],[0],[0],[1.2087250999975367],['target'],003,001,2023-09-27_10h56.34.961,Visual Search,2023.1.3,144.29473064333908,
153,0,153,0,10,337.4283332999985,337.4283332999985,0.022453400000813417,[0.44212962962962965],[0.3101851851851852],[1],[0],[0],[2.277548799997021],['target'],003,001,2023-09-27_10h56.34.961,Visual Search,2023.1.3,144.29473064333908,
154,0,154,0,5,339.7176726000034,339.7176726000034,0.013059299999440555,[-0.2789351851851852],[-0.47685185185185186],[1],[0],[0],[1.7600499000036507],['target'],003,001,2023-09-27_10h56.34.961,Visual Search,2023.1.3,144.29473064333908,
155,0,155,0,5,341.50061200000346,341.50061200000346,0.015190699996310286,[0.27314814814814814],[-0.35185185185185186],[1],[0],[0],[1.3616110000002664],['target'],003,001,2023-09-27_10h56.34.961,Visual Search,2023.1.3,144.29473064333908,
156,0,156,0,5,342.874061399998,342.874061399998,0.013106999998854008,[0.4085648148148148],[-0.2048611111111111],[1],[0],[0],[1.4200178000028245],['target'],003,001,2023-09-27_10h56.34.961,Visual Search,2023.1.3,144.29473064333908,
157,0,157,0,10,344.32413259999885,344.32413259999885,0.02597070000047097,[0.017361111111111112],[-0.11226851851851852],[1],[0],[0],[1.5951988000015263],['target'],003,001,2023-09-27_10h56.34.961,Visual Search,2023.1.3,144.29473064333908,
158,0,158,0,5,345.9334902999981,345.9334902999981,0.012931500001286622,[-0.4675925925925926],[0.3993055555555556],[1],[0],[0],[1.8369815000041854],['target'],003,001,2023-09-27_10h56.34.961,Visual Search,2023.1.3,144.29473064333908,
159,0,159,0,10,347.79962779999914,347.79962779999914,0.023358900005405303,[-0.2048611111111111],[0.1111111111111111],[1],[0],[0],[1.5820183000032557],['target'],003,001,2023-09-27_10h56.34.961,Visual Search,2023.1.3,144.29473064333908,
160,0,160,0,10,349.408462899999,349.408462899999,0.022541899998032022,[-0.39814814814814814],[-0.3113425925925926],[1],[0],[0],[1.3898954999967827],['target'],003,001,2023-09-27_10h56.34.961,Visual Search,2023.1.3,144.29473064333908,
161,0,161,0,5,350.81013410000014,350.81013410000014,0.012521500000730157,[-0.2743055555555556],[0.3784722222222222],[1],[0],[0],[1.2285072000013315],['target'],003,001,2023-09-27_10h56.34.961,Visual Search,2023.1.3,144.29473064333908,
162,0,162,0,10,352.06593789999897,352.06593789999897,0.022635099994658958,[0.26967592592592593],[0.2152777777777778],[1],[0],[0],[1.388177100001485],['target'],003,001,2023-09-27_10h56.34.961,Visual Search,2023.1.3,144.29473064333908,
163,0,163,0,10,353.4810332000052,353.4810332000052,0.021875999998883344,[0.22685185185185186],[0.35185185185185186],[1],[0],[0],[1.3495092999946792],['target'],003,001,2023-09-27_10h56.34.961,Visual Search,2023.1.3,144.29473064333908,
164,0,164,0,10,354.8547008000023,354.8547008000023,0.02211160000297241,[0.19560185185185186],[-0.33564814814814814],[1],[0],[0],[1.9717582000012044],['target'],003,001,2023-09-27_10h56.34.961,Visual Search,2023.1.3,144.29473064333908,
165,0,165,0,5,356.8385030999998,356.8385030999998,0.012664000001677778,[0.3113425925925926],[-0.059027777777777776],[1],[0],[0],[1.8595801999981632],['target'],003,001,2023-09-27_10h56.34.961,Visual Search,2023.1.3,144.29473064333908,
166,0,166,0,5,358.7117805000016,358.7117805000016,0.01302880000002915,[0.19444444444444445],[0.05555555555555555],[1],[0],[0],[1.126842999998189],['target'],003,001,2023-09-27_10h56.34.961,Visual Search,2023.1.3,144.29473064333908,
167,0,167,0,5,359.8562571000002,359.8562571000002,0.013211500001489185,[0.4039351851851852],[-0.3194444444444444],[1],[0],[0],[1.1707328999982565],['target'],003,001,2023-09-27_10h56.34.961,Visual Search,2023.1.3,144.29473064333908,
168,0,168,0,5,361.0427991000033,361.0427991000033,0.012451700000383426,[0.10532407407407407],[-0.4201388888888889],[1],[0],[0],[1.4537284999969415],['target'],003,001,2023-09-27_10h56.34.961,Visual Search,2023.1.3,144.29473064333908,
169,0,169,0,5,362.5134393000044,362.5134393000044,0.013016599994443823,[-0.28125],[0.35532407407407407],[1],[0],[0],[2.2447046999950544],['target'],003,001,2023-09-27_10h56.34.961,Visual Search,2023.1.3,144.29473064333908,
170,0,170,0,5,364.77483550000034,364.77483550000034,0.013435900000331458,[-0.21643518518518517],[-0.10300925925925926],[1],[0],[0],[1.461276199996064],['target'],003,001,2023-09-27_10h56.34.961,Visual Search,2023.1.3,144.29473064333908,
171,0,171,0,5,366.25243030000274,366.25243030000274,0.013080299999273848,[0.2037037037037037],[-0.1261574074074074],[1],[0],[0],[1.7591413000045577],['target'],003,001,2023-09-27_10h56.34.961,Visual Search,2023.1.3,144.29473064333908,
172,0,172,0,5,368.0293493999998,368.0293493999998,0.014085300004808232,[0.0775462962962963],[-0.061342592592592594],[1],[0],[0],[1.4751221000042278],['target'],003,001,2023-09-27_10h56.34.961,Visual Search,2023.1.3,144.29473064333908,
173,0,173,0,10,369.5340114999999,369.5340114999999,0.02344430000084685,[0.4131944444444444],[0.3715277777777778],[1],[0],[0],[1.5276408999998239],['target'],003,001,2023-09-27_10h56.34.961,Visual Search,2023.1.3,144.29473064333908,
174,0,174,0,10,371.08763400000316,371.08763400000316,0.022684000003209803,[-0.3645833333333333],[-0.26273148148148145],[1],[0],[0],[1.499758699996164],['target'],003,001,2023-09-27_10h56.34.961,Visual Search,2023.1.3,144.29473064333908,
175,0,175,0,5,372.60021340000094,372.60021340000094,0.012677400001848582,[-0.38425925925925924],[-0.4664351851851852],[1],[0],[0],[1.739281199996185],['target'],003,001,2023-09-27_10h56.34.961,Visual Search,2023.1.3,144.29473064333908,
176,0,176,0,10,374.37635330000194,374.37635330000194,0.0282017999998061,[-0.41087962962962965],[-0.3125],[1],[0],[0],[1.6271761000025435],['target'],003,001,2023-09-27_10h56.34.961,Visual Search,2023.1.3,144.29473064333908,
177,0,177,0,10,376.0271897999992,376.0271897999992,0.022054000000935048,[0.22916666666666666],[-0.4363425925925926],[1],[0],[0],[1.321171100003994],['target'],003,001,2023-09-27_10h56.34.961,Visual Search,2023.1.3,144.29473064333908,
178,0,178,0,10,377.37302920000366,377.37302920000366,0.023032099998090416,[0.47800925925925924],[-0.4861111111111111],[1],[0],[0],[1.3751055999964592],['target'],003,001,2023-09-27_10h56.34.961,Visual Search,2023.1.3,144.29473064333908,
179,0,179,0,5,378.7604333999989,378.7604333999989,0.013528900002711453,[-0.44212962962962965],[0.2349537037037037],[1],[0],[0],[1.1705667999995057],['target'],003,001,2023-09-27_10h56.34.961,Visual Search,2023.1.3,144.29473064333908,
180,0,180,0,5,379.9466887000017,379.9466887000017,0.013934000002336688,[-0.2025462962962963],[0.017361111111111112],[1],[0],[0],[1.417947699999786],['target'],003,001,2023-09-27_10h56.34.961,Visual Search,2023.1.3,144.29473064333908,
181,0,181,0,5,381.3827216999998,381.3827216999998,0.013165400006982964,[0.1087962962962963],[0.21412037037037038],[1],[0],[0],[1.601361500004714],['target'],003,001,2023-09-27_10h56.34.961,Visual Search,2023.1.3,144.29473064333908,
182,0,182,0,5,382.9989876000036,382.9989876000036,0.01332640000327956,[0.02546296296296296],[0.3460648148148148],[1],[0],[0],[1.1826062000036472],['target'],003,001,2023-09-27_10h56.34.961,Visual Search,2023.1.3,144.29473064333908,
183,0,183,0,5,384.1992976000038,384.1992976000038,0.012541500000224914,[-0.4965277777777778],[-0.020833333333333332],[1],[0],[0],[1.3459218999996665],['target'],003,001,2023-09-27_10h56.34.961,Visual Search,2023.1.3,144.29473064333908,
184,0,184,0,10,385.5726732000039,385.5726732000039,0.022344999997585546,[-0.23958333333333334],[-0.42592592592592593],[1],[0],[0],[1.31858099999954],['target'],003,001,2023-09-27_10h56.34.961,Visual Search,2023.1.3,144.29473064333908,
185,0,185,0,10,386.91875750000327,386.91875750000327,0.02344009999796981,[-0.4085648148148148],[0.3819444444444444],[1],[0],[0],[2.013783100002911],['target'],003,001,2023-09-27_10h56.34.961,Visual Search,2023.1.3,144.29473064333908,
186,0,186,0,10,388.95829270000104,388.95829270000104,0.022234799995203502,[0.26273148148148145],[0.07060185185185185],[1],[0],[0],[1.5420458000007784],['target'],003,001,2023-09-27_10h56.34.961,Visual Search,2023.1.3,144.29473064333908,
187,0,187,0,10,390.52605810000387,390.52605810000387,0.022514299998874776,[0.15393518518518517],[-0.3194444444444444],[1],[0],[0],[1.6532545000009122],[],003,001,2023-09-27_10h56.34.961,Visual Search,2023.1.3,144.29473064333908,
188,0,188,0,5,392.19100420000177,392.19100420000177,0.012814000001526438,[0.056712962962962965],[-0.3958333333333333],[1],[0],[0],[1.1223071999993408],['target'],003,001,2023-09-27_10h56.34.961,Visual Search,2023.1.3,144.29473064333908,
189,0,189,0,10,393.3426374000046,393.3426374000046,0.022829100002127234,[-0.061342592592592594],[-0.01273148148148148],[1],[0],[0],[1.4029096000012942],['target'],003,001,2023-09-27_10h56.34.961,Visual Search,2023.1.3,144.29473064333908,
190,0,190,0,5,394.7579093000022,394.7579093000022,0.012481200006732251,[-0.08101851851851852],[0.16898148148148148],[1],[0],[0],[1.3389218999946024],['target'],003,001,2023-09-27_10h56.34.961,Visual Search,2023.1.3,144.29473064333908,
191,0,191,0,10,396.12428640000144,396.12428640000144,0.023594199999934062,[-0.09259259259259259],[0.24074074074074073],[1],[0],[0],[1.0125384999992093],['target'],003,001,2023-09-27_10h56.34.961,Visual Search,2023.1.3,144.29473064333908,
192,0,192,0,5,397.1512201000005,397.1512201000005,0.012316400003328454,[-0.40046296296296297],[-0.3541666666666667],[1],[0],[0],[1.580203999998048],['target'],003,001,2023-09-27_10h56.34.961,Visual Search,2023.1.3,144.29473064333908,
193,0,193,0,10,398.7605293000015,398.7605293000015,0.023580199995194562,[-0.33796296296296297],[0.37037037037037035],[1],[0],[0],[2.137332600002992],['target'],003,001,2023-09-27_10h56.34.961,Visual Search,2023.1.3,144.29473064333908,
194,0,194,0,5,400.9110432000016,400.9110432000016,0.012630800003535114,[0.11574074074074074],[-0.27314814814814814],[1],[0],[0],[1.6643484000014723],['target'],003,001,2023-09-27_10h56.34.961,Visual Search,2023.1.3,144.29473064333908,
195,0,195,0,10,402.60362429999805,402.60362429999805,0.0259994000007282,[-0.3784722222222222],[0.04398148148148148],[1],[0],[0],[1.4411028000031365],['target'],003,001,2023-09-27_10h56.34.961,Visual Search,2023.1.3,144.29473064333908,
196,0,196,0,5,404.06062699999893,404.06062699999893,0.013224100002844352,[0.05787037037037037],[0.3101851851851852],[1],[0],[0],[1.5034759999980452],['target'],003,001,2023-09-27_10h56.34.961,Visual Search,2023.1.3,144.29473064333908,
197,0,197,0,10,405.5938262999989,405.5938262999989,0.022628200000326615,[-0.29282407407407407],[-0.2777777777777778],[1],[0],[0],[1.5682606999980635],['target'],003,001,2023-09-27_10h56.34.961,Visual Search,2023.1.3,144.29473064333908,
198,0,198,0,5,407.17538290000084,407.17538290000084,0.013348600004974287,[0.11689814814814815],[0.16087962962962962],[1],[0],[0],[1.518265300001076],['target'],003,001,2023-09-27_10h56.34.961,Visual Search,2023.1.3,144.29473064333908,
199,0,199,0,5,408.70862570000463,408.70862570000463,0.012461599995731376,[-0.12962962962962962],[0.4930555555555556],[1],[0],[0],[1.7385289000012563],['target'],003,001,2023-09-27_10h56.34.961,Visual Search,2023.1.3,144.29473064333908,
